"Time (s)","Acceleration x (m/s^2)","Acceleration y (m/s^2)","Acceleration z (m/s^2)","Absolute acceleration (m/s^2)"
5.947124970E-3,2.863545227E0,9.521699524E0,1.155746613E0,1.000991525E1
1.595212502E-2,2.865640869E0,9.536668396E0,1.247805176E0,1.003578395E1
2.595612500E-2,2.910547485E0,9.471703491E0,1.343605957E0,9.999486520E0
3.596112499E-2,2.971021729E0,9.354646912E0,1.503174133E0,9.929547896E0
4.596612498E-2,2.968626709E0,9.259295197E0,1.622026978E0,9.857903610E0
5.597112497E-2,2.925216980E0,9.217981110E0,1.652413788E0,9.811143738E0
6.597512501E-2,2.897225189E0,9.200617218E0,1.633253632E0,9.783291287E0
7.598012500E-2,2.793790283E0,9.220525818E0,1.518292694E0,9.753387781E0
8.598512498E-2,2.683320007E0,9.258097687E0,1.325044556E0,9.729764751E0
9.599012497E-2,2.604583740E0,9.362281036E0,1.206191711E0,9.792398129E0
1.059941250E-1,2.556234283E0,9.492959290E0,1.160836029E0,9.899401501E0
1.159991250E-1,2.546803894E0,9.634864197E0,1.209335175E0,1.003888987E1
1.260041250E-1,2.565215607E0,9.719887390E0,1.353335724E0,1.014337516E1
1.360091250E-1,2.645299072E0,9.721084900E0,1.516945496E0,1.018814127E1
1.460131250E-1,2.717748413E0,9.639953613E0,1.724713440E0,1.016314413E1
1.560181250E-1,2.784509583E0,9.565258942E0,1.912722473E0,1.014426831E1
1.660231250E-1,2.761008453E0,9.595346375E0,1.965263214E0,1.017625173E1
1.760281250E-1,2.644850006E0,9.624236298E0,1.805695038E0,1.014306120E1
1.860321250E-1,2.413880310E0,9.617350616E0,1.515897675E0,1.003086222E1
1.960371250E-1,2.185305634E0,9.652527466E0,1.288221130E0,9.980298636E0
2.060421250E-1,2.112556915E0,9.729467468E0,1.068627777E0,1.001336104E1
2.160471250E-1,2.052681427E0,9.837692413E0,9.327104187E-1,1.009275194E1
2.260511250E-1,1.919159088E0,9.837692413E0,9.532177734E-1,1.006836569E1
2.360561250E-1,1.671723633E0,9.749825134E0,1.209185486E0,9.965735276E0
2.460611250E-1,1.363364868E0,9.772577820E0,1.795366516E0,1.002922639E1
2.560661250E-1,1.062041473E0,1.000953506E1,2.497855682E0,1.037101766E1
2.660701250E-1,9.461824036E-1,1.013976425E1,3.265459442E0,1.069454560E1
2.760751250E-1,7.426057434E-1,9.935588837E0,3.885470123E0,1.069412301E1
2.860801250E-1,6.539900208E-1,9.715396729E0,4.149221649E0,1.058454897E1
2.960851250E-1,6.132746887E-1,9.787397003E0,4.779411163E0,1.090926290E1
3.060891250E-1,7.225474548E-1,1.000384689E1,4.904401245E0,1.116477403E1
3.160941250E-1,6.779402161E-1,1.028601013E1,5.282065887E0,1.158282467E1
3.260991250E-1,1.947450256E-1,1.062625259E1,6.630611572E0,1.252677850E1
3.361041250E-1,-1.348695374E-1,1.068567902E1,7.547155609E0,1.308286985E1
3.461091250E-1,-2.978805542E-2,1.050874695E1,7.770341492E0,1.306953927E1
3.561131250E-1,6.462062073E-1,9.887239380E0,7.546556854E0,1.245494301E1
3.661181250E-1,1.852397919E0,8.624914398E0,6.556216278E0,1.099110997E1
3.761231250E-1,2.772534485E0,7.327113190E0,5.025349731E0,9.307398943E0
3.861281250E-1,3.526965637E0,6.626120911E0,3.333118744E0,8.213077711E0
3.961321250E-1,3.963457947E0,6.059549103E0,1.728305969E0,7.444069838E0
4.061371250E-1,4.189188538E0,5.980513458E0,-1.172062683E-1,7.302710397E0
4.161421250E-1,4.276606750E0,6.358477478E0,-1.341959381E0,7.779489451E0
4.261471250E-1,4.334536285E0,6.320606232E0,-1.537153473E0,7.816719820E0
4.361511250E-1,4.167333984E0,6.178252258E0,-1.447789307E0,7.591677508E0
4.461561250E-1,3.834875336E0,5.670957184E0,-9.824070740E-1,6.916006643E0
4.561611250E-1,3.307821350E0,4.757257233E0,-5.685177612E-1,5.822060710E0
4.661661250E-1,2.874023438E0,4.135749664E0,-1.052311707E-1,5.037411002E0
4.761701250E-1,2.520907745E0,3.992198181E0,5.825885010E-1,4.757313479E0
4.861751250E-1,1.984273682E0,3.952680359E0,1.160536652E0,4.572512371E0
4.961801250E-1,1.268312531E0,4.158951416E0,2.460433502E0,4.995920994E0
5.061851250E-1,7.185058594E-3,5.113067322E0,6.888375549E0,8.578649472E0
5.161891250E-1,-2.183060303E0,6.756649475E0,1.136945709E1,1.340457455E1
5.261941250E-1,-2.173031158E0,8.185428314E0,9.917925568E0,1.304180005E1
5.361991250E-1,-3.347039795E-1,9.918524323E0,5.762267303E0,1.147575165E1
5.462041250E-1,1.616787872E0,1.199410812E1,2.349813538E0,1.232859507E1
5.562081250E-1,2.942580872E0,1.376537476E1,7.225474548E-1,1.409490685E1
5.662131250E-1,3.608545990E0,1.451636307E1,-1.559756470E-1,1.495896819E1
5.762181250E-1,3.628155212E0,1.505239838E1,-1.363664246E-1,1.548408224E1
5.862231250E-1,3.068319397E0,1.477846802E1,7.316784668E-1,1.511135514E1
5.962271250E-1,2.497556305E0,1.352931564E1,1.406475220E0,1.382961828E1
6.062321250E-1,2.087409210E0,1.208871140E1,1.602717133E0,1.237186011E1
6.162371250E-1,2.177072754E0,1.109552673E1,9.225315857E-1,1.134466499E1
6.262421250E-1,2.602637787E0,1.119072876E1,-7.195536804E-1,1.151190215E1
6.362461250E-1,2.647095337E0,1.163949554E1,-1.932182007E0,1.209207582E1
6.462511250E-1,1.825304260E0,1.138876694E1,-6.355783081E-1,1.155161061E1
6.562561250E-1,-6.816824341E-1,1.324176361E1,4.747377777E0,1.408355744E1
6.662611250E-1,-3.119063873E0,1.474508743E1,8.476423187E0,1.729149828E1
6.762651250E-1,-3.266956329E0,1.271575745E1,6.403683472E0,1.460721237E1
6.862701250E-1,-6.899153137E-1,9.880353699E0,3.019969940E0,1.035459274E1
6.962751250E-1,2.644700317E0,8.548124084E0,3.725752258E-1,8.955650587E0
7.062801250E-1,3.602708130E0,8.554411011E0,-1.256038055E0,9.366700871E0
7.162851250E-1,4.720583496E0,8.955726471E0,-1.317709808E0,1.020907950E1
7.262891250E-1,6.648424530E0,9.122479706E0,1.262774048E0,1.135851148E1
7.362941250E-1,7.649393005E0,9.034163361E0,2.693947906E0,1.214029144E1
7.462991250E-1,6.931785278E0,9.257498932E0,-2.577639771E-1,1.156794605E1
7.563031250E-1,6.340963898E0,9.599088593E0,-3.056044922E0,1.190334976E1
7.663081250E-1,6.529871063E0,9.791288910E0,-3.818858643E0,1.237304473E1
7.763131250E-1,7.088659058E0,9.910141754E0,-3.685485992E0,1.272960344E1
7.863181250E-1,8.044122162E0,1.014410522E1,-3.025358734E0,1.329524605E1
7.963231250E-1,9.170529785E0,1.035756134E1,-2.565814362E0,1.406986485E1
8.063271250E-1,9.932744751E0,1.016820511E1,-2.250120850E0,1.439148558E1
8.163321250E-1,1.008677444E1,9.461674347E0,-1.779499512E0,1.394392049E1
8.263371250E-1,9.731862488E0,8.113877106E0,-1.559906158E0,1.276626243E1
8.363411250E-1,9.293873291E0,6.599626007E0,-1.411265259E0,1.148576570E1
8.463461250E-1,8.976233826E0,5.236710205E0,-1.001866608E0,1.044028947E1
8.563511250E-1,9.109905853E0,3.829636230E0,2.220183105E0,1.012846046E1
8.663561250E-1,9.945318604E0,2.262844391E0,8.899742889E0,1.353644157E1
8.763613333E-1,9.661209412E0,2.429447937E0,6.501130829E0,1.189562468E1
8.863653333E-1,9.148675232E0,4.089196472E0,5.912704468E-2,1.002114177E1
8.963703333E-1,8.827742615E0,4.347708893E0,-1.119671631E0,9.903801131E0
9.063753333E-1,8.256829834E0,3.667822723E0,2.146386566E0,9.286287618E0
9.163803333E-1,7.096592560E0,4.298610992E0,4.650828552E0,9.511566046E0
9.263843333E-1,5.594915314E0,5.694009247E0,3.120560760E0,8.571039501E0
9.363893333E-1,4.476890259E0,6.102360077E0,1.405577087E0,7.697856315E0
9.463943333E-1,3.600911865E0,5.965993652E0,8.532257080E-1,7.020515695E0
9.563993333E-1,3.188669128E0,5.699847107E0,4.538562012E-1,6.546896464E0
9.664033334E-1,3.173700256E0,5.544170837E0,1.182540894E-1,6.389380848E0
9.764083333E-1,2.952460327E0,5.473966827E0,3.532653809E-1,6.229456737E0
9.864133333E-1,2.510279846E0,5.617368622E0,7.243437195E-1,6.195240832E0
9.964183333E-1,2.344574432E0,5.483397217E0,5.387297058E-1,5.987896459E0
1.006422333E0,2.387385406E0,5.154082031E0,1.218466187E-1,5.681462599E0
1.016427333E0,2.538571014E0,4.972060547E0,-4.954696655E-1,5.604571265E0
1.026432333E0,2.918480988E0,4.996609497E0,-1.377734985E0,5.948259530E0
1.036437333E0,3.359164581E0,5.436694336E0,-1.366957397E0,6.535304470E0
1.046441333E0,3.559897156E0,6.431675262E0,1.532812500E-1,7.352741637E0
1.056446333E0,3.598965912E0,8.553812256E0,5.496120758E0,1.078552749E1
1.066451333E0,3.523822174E0,1.051353699E1,1.018347336E1,1.505506268E1
1.076456333E0,3.338357849E0,9.684560852E0,5.967191162E0,1.185507159E1
1.086460333E0,3.487896881E0,8.401578827E0,1.025667114E0,9.154449436E0
1.096465333E0,3.519780579E0,8.082741852E0,-1.141226807E0,8.889430229E0
1.106470333E0,3.470233612E0,8.441545715E0,-1.273551636E0,9.215429950E0
1.116475333E0,4.222419434E0,9.086704102E0,-1.118474121E0,1.008206336E1
1.126479333E0,5.435197449E0,9.829010468E0,-1.050515442E0,1.128070923E1
1.136484333E0,6.671626282E0,1.050485504E1,-8.933422852E-1,1.247640321E1
1.146489333E0,7.947872314E0,1.081695602E1,-2.951861572E-1,1.342618139E1
1.156494333E0,9.472901001E0,1.099748062E1,1.911225586E0,1.464012352E1
1.166498333E0,1.071411987E1,1.056772430E1,4.712649994E0,1.576953492E1
1.176503333E0,1.042252625E1,9.609417114E0,6.079757080E0,1.542508985E1
1.186508333E0,9.552385712E0,9.044791260E0,7.254364471E0,1.502272031E1
1.196513333E0,9.616452484E0,9.149872742E0,5.307512970E0,1.429566450E1
1.206517333E0,1.050231033E1,8.990304565E0,-9.767189026E-1,1.385922358E1
1.216522333E0,1.073836945E1,8.160280609E0,-1.790277100E0,1.360543458E1
1.226527333E0,9.789043579E0,7.428153076E0,3.783532104E0,1.285760271E1
1.236532333E0,8.583899689E0,7.168293457E0,4.359983368E0,1.200321707E1
1.246536333E0,6.975344696E0,6.661148071E0,2.480641479E0,9.958911055E0
1.256541333E0,6.058201904E0,5.999074860E0,1.565444641E0,8.668409682E0
1.266546333E0,5.866750031E0,5.581293640E0,1.666783905E0,8.267270602E0
1.276551333E0,6.433920593E0,5.633684692E0,1.656605072E0,8.710802361E0
1.286555333E0,7.773934021E0,6.210285645E0,2.038161621E0,1.015656442E1
1.296560333E0,9.357940063E0,7.155869293E0,2.590662689E0,1.206188380E1
1.306565333E0,1.072384964E1,8.324638824E0,3.381168823E0,1.399045622E1
1.316570333E0,1.134341125E1,9.398954773E0,3.160228271E0,1.506653153E1
1.326574333E0,1.060544586E1,9.936636658E0,2.136656799E0,1.468936800E1
1.336579333E0,9.436526642E0,1.044587769E1,3.366499329E0,1.447403584E1
1.346584333E0,7.841443634E0,1.149684219E1,3.701502686E0,1.440023405E1
1.356589333E0,7.019951935E0,1.287263123E1,4.264781342E0,1.526999410E1
1.366593333E0,7.994425507E0,1.440903625E1,6.143524475E0,1.758618941E1
1.376598333E0,1.061337936E1,1.597178650E1,6.776857452E0,2.033881959E1
1.386603333E0,1.342902420E1,1.843491440E1,5.710175629E0,2.351150496E1
1.396607333E0,1.603914642E1,2.206726089E1,4.265679474E0,2.761184968E1
1.406612333E0,1.846724716E1,2.534484512E1,1.245410156E0,3.138393599E1
1.416617333E0,2.047352509E1,2.796709213E1,-1.228495331E0,3.468187816E1
1.426622333E0,2.177372131E1,2.929468140E1,-1.640738068E0,3.653717722E1
1.436627333E0,2.224658798E1,2.865266647E1,-8.042774963E-1,3.628405759E1
1.446631333E0,2.104159378E1,2.572056381E1,-1.384321289E0,3.325977175E1
1.456636333E0,1.851110596E1,2.189601700E1,-3.083737335E0,2.883758034E1
1.466641333E0,1.663236282E1,1.989677444E1,-1.795216827E0,2.599499817E1
1.476646333E0,1.455139023E1,1.777284119E1,3.709286499E-1,2.297290642E1
1.486650333E0,1.168140839E1,1.620784561E1,3.677103424E0,2.031429671E1
1.496655333E0,8.383017426E0,1.322185501E1,8.318202209E0,1.772808278E1
1.506660333E0,6.122418365E0,9.562115479E0,8.873397675E0,1.441024793E1
1.516665333E0,6.775061188E0,9.159901886E0,3.122207336E0,1.181327369E1
1.526669333E0,5.215753784E0,5.877527618E0,5.523364105E0,9.605049166E0
1.536674333E0,1.334325256E0,-3.474275208E-1,1.603151230E1,1.609069658E1
1.546679333E0,3.990701294E-1,-1.264869690E0,1.149085464E1,1.156714713E1
1.556683333E0,1.352437592E0,-7.634124756E-3,8.045768738E-1,1.573686648E0
1.566688333E0,9.113049316E-1,-4.249662781E-1,-4.007765808E0,4.131980129E0
1.576693333E0,-1.466949463E-2,-8.961863708E-1,-4.679868164E0,4.764927202E0
1.586698333E0,-4.351451111E-1,-1.045575714E0,-4.089046783E0,4.242980490E0
1.596702333E0,-5.539979553E-1,-1.067579956E0,-3.681893463E0,3.873368066E0
1.606707333E0,-7.006929016E-1,-1.055155792E0,-3.067570953E0,3.318782283E0
1.616712333E0,-7.146139526E-1,-1.184187469E0,-2.492766266E0,2.850764234E0
1.626717333E0,-6.273454285E-1,-1.450184326E0,-2.077080688E0,2.609762643E0
1.636721333E0,-6.011499023E-1,-1.758094025E0,-1.870210876E0,2.636278537E0
1.646726333E0,-6.361770630E-1,-1.964215393E0,-1.819167023E0,2.751768890E0
1.656731333E0,-7.198530579E-1,-2.417173462E0,-1.933229828E0,3.177781229E0
1.666736333E0,-7.544311523E-1,-2.903661804E0,-1.995350647E0,3.603032395E0
1.676740333E0,-8.518785095E-1,-3.147504730E0,-2.089355164E0,3.872710681E0
1.686745333E0,-9.177415466E-1,-3.217409363E0,-2.141895905E0,3.972617603E0
1.696750333E0,-9.316625977E-1,-3.291654968E0,-2.125729523E0,4.027618854E0
1.706755333E0,-9.288185120E-1,-3.241958313E0,-2.246228943E0,4.051980009E0
1.716759333E0,-1.114582214E0,-3.077151031E0,-2.432591400E0,4.077824531E0
1.726764333E0,-1.502874756E0,-2.730322266E0,-2.471809845E0,3.977830579E0
1.736769333E0,-1.813628540E0,-2.042652283E0,-2.305954742E0,3.574787281E0
1.746774333E0,-1.624871063E0,-1.010548553E0,-2.086361389E0,2.830957117E0
1.756778333E0,-1.234632568E0,-7.140151978E-2,-1.962718506E0,2.319844755E0
1.766783333E0,-1.182241516E0,4.834945679E-1,-1.884431305E0,2.276520007E0
1.776788333E0,-1.257085876E0,8.526269531E-1,-1.817670135E0,2.368789215E0
1.786793333E0,-1.281185760E0,1.031654663E0,-1.756447449E0,2.406419734E0
1.796797333E0,-1.309027863E0,9.871971130E-1,-1.431772614E0,2.176714244E0
1.806802333E0,-1.343306580E0,8.397537231E-1,-1.137634277E0,1.950351412E0
1.816807333E0,-1.396296387E0,7.375163269E-1,-1.074465637E0,1.909986999E0
1.826812333E0,-1.430575104E0,6.072871399E-1,-9.636959839E-1,1.828675134E0
1.836816333E0,-1.453926544E0,4.502636719E-1,-6.973997498E-1,1.674218080E0
1.846821333E0,-1.465602264E0,3.282673645E-1,-4.578977966E-1,1.570165549E0
1.856826333E0,-1.481918335E0,1.675016785E-1,-2.823129272E-1,1.517840358E0
1.866831333E0,-1.482816467E0,9.879455566E-3,-1.115180969E-1,1.487036841E0
1.876835208E0,-1.458417206E0,-8.367599487E-2,3.472778320E-2,1.461228400E0
1.886840208E0,-1.431173859E0,-1.001417542E-1,1.070274353E-1,1.438659743E0
1.896845208E0,-1.422491913E0,-1.136137390E-1,1.221459961E-1,1.432239843E0
1.906850208E0,-1.357976074E0,-2.269281006E-1,1.119671631E-1,1.381351522E0
1.916854208E0,-1.247505798E0,-3.272195435E-1,1.149609375E-1,1.294820205E0
1.926859208E0,-1.124012604E0,-3.474275208E-1,1.947450256E-1,1.192491443E0
1.936864208E0,-8.903485107E-1,-2.914439392E-1,3.089575195E-1,9.864658074E-1
1.946869208E0,-6.325845337E-1,-2.118095398E-1,2.802172852E-1,7.235663068E-1
1.956873208E0,-4.511618042E-1,-1.657054138E-1,2.625540161E-1,5.476676630E-1
1.966878208E0,-3.022215271E-1,-1.486408997E-1,1.821711731E-1,3.829076975E-1
1.976883208E0,-9.744735718E-2,9.714797974E-2,9.385482788E-2,1.665606379E-1
1.986888208E0,3.921844482E-2,4.504133606E-1,1.125659180E-1,4.659199155E-1
1.996892208E0,-4.490661621E-4,6.135740662E-1,1.043330383E-1,6.223814901E-1
2.006897208E0,-7.050338745E-2,6.938072205E-1,-8.232879639E-3,6.974288258E-1
2.016902208E0,-1.086740112E-1,8.228388977E-1,-1.871109009E-2,8.301951561E-1
2.026907208E0,3.643423462E-1,3.039429474E0,1.929936676E0,3.618774992E0
2.036911208E0,1.537617508E1,3.281700668E1,4.219740005E1,5.562376524E1
2.046916208E0,2.222862534E1,6.143000565E1,4.457625320E1,7.908729182E1
2.056921208E0,1.159189453E1,5.395574844E1,-4.915627899E0,5.540539871E1
2.066926208E0,1.309836182E1,5.761758362E1,-1.468146973E1,6.088430485E1
2.076930208E0,1.929113388E1,6.081134216E1,-1.209110641E1,6.493352013E1
2.086935208E0,2.340323273E1,4.705749344E1,-2.198777618E0,5.260184040E1
2.096940208E0,1.711675552E1,2.593342117E1,1.496782425E1,3.449001908E1
2.106945208E0,1.311108536E1,2.071572144E1,-6.138734436E-1,2.452383564E1
2.116949208E0,1.228659988E1,1.718306763E1,-7.068600769E0,2.227517602E1
2.126954208E0,1.281754578E1,1.126242966E1,-6.363267517E-1,1.707444621E1
2.136959208E0,1.603869736E1,6.059100037E0,6.272107086E0,1.825628203E1
2.146964208E0,1.609468094E1,7.892487488E0,1.763333130E0,1.801220300E1
2.156968208E0,1.210802124E1,1.144070892E1,4.056564331E-1,1.666308963E1
2.166973208E0,8.834478607E0,1.437445816E1,-7.530839539E-1,1.688905548E1
2.176978208E0,7.480244751E0,1.672067917E1,-9.383985901E-1,1.834164020E1
2.186983208E0,5.479355621E0,1.756028320E1,4.382885742E-1,1.840051578E1
2.196987208E0,3.674708405E0,1.685405182E1,2.442919922E0,1.742212393E1
2.206992208E0,2.828218689E0,1.591370728E1,3.106789398E0,1.645895017E1
2.216997208E0,2.810854797E0,1.487471786E1,2.520308990E0,1.534633812E1
2.227002208E0,2.725532227E0,1.367765717E1,1.713935852E0,1.405149129E1
2.237006208E0,2.138153687E0,1.208676544E1,1.656006317E0,1.238563511E1
2.247011208E0,1.432521057E0,1.043779449E1,2.326611786E0,1.078947602E1
2.257016208E0,7.009922791E-1,8.669671326E0,3.266656952E0,9.291159169E0
2.267020208E0,2.365081787E-2,7.128925323E0,3.920347595E0,8.135801183E0
2.277025208E0,-4.357438660E-1,6.020330658E0,3.911665649E0,7.192731199E0
2.287030208E0,-7.650590515E-1,4.873116302E0,3.529510345E0,6.065477815E0
2.297035208E0,-8.150550842E-1,3.252137146E0,2.919229431E0,4.445515862E0
2.307039208E0,-3.944297791E-1,1.847458191E0,2.099084930E0,2.823974887E0
2.317044208E0,2.540217590E-1,9.285191345E-1,1.093027039E0,1.456496805E0
2.327049208E0,7.917036438E-1,5.108876038E-1,-3.736230469E-1,1.013604945E0
2.337054208E0,1.152902527E0,6.002517700E-1,-2.036515045E0,2.415963566E0
2.347058208E0,1.251996460E0,6.150709534E-1,-3.062930603E0,3.365613063E0
2.357063208E0,1.189127197E0,3.282673645E-1,-2.996917877E0,3.240879467E0
2.367068208E0,1.052311707E0,1.736389160E-2,-2.333497467E0,2.559857781E0
2.377073208E0,8.684939575E-1,-1.761836243E-1,-1.701511688E0,1.918453661E0
2.387077208E0,6.065386963E-1,-2.237846375E-1,-9.636959839E-1,1.160464865E0
2.397082208E0,3.757186890E-1,-3.203338623E-2,-2.549198914E-1,4.551646099E-1
2.407087208E0,3.625460815E-1,8.195457458E-1,4.851411438E-1,1.019047016E0
2.417092208E0,8.662486267E-1,2.634371796E0,1.368154907E0,3.092272512E0
2.427096208E0,1.275497589E0,5.084327087E0,3.371588745E0,6.232566622E0
2.437101208E0,1.380130005E0,7.431446228E0,4.389921112E0,8.740855750E0
2.447106208E0,1.404229889E0,8.704548798E0,2.919079742E0,9.287736963E0
2.457111208E0,1.441951447E0,9.375753021E0,1.266815643E0,9.570203267E0
2.467115208E0,1.368753662E0,9.625284119E0,7.304809570E-2,9.722392554E0
2.477120208E0,1.338366852E0,9.591005402E0,-8.791218567E-1,9.723757796E0
2.487125208E0,1.377884674E0,9.604477386E0,-1.508413239E0,9.819361616E0
2.497130208E0,1.452729034E0,9.926158447E0,-1.827100525E0,1.019692794E1
2.507134208E0,1.533111877E0,1.071097641E1,-1.720372467E0,1.095605445E1
2.517139208E0,1.630708923E0,1.241353592E1,-1.003213806E0,1.256031542E1
2.527144208E0,1.771715698E0,1.523995834E1,3.929328918E-1,1.534762858E1
2.537149208E0,1.976489868E0,1.827938782E1,1.513951721E0,1.844815928E1
2.547153208E0,2.041155396E0,2.046289719E1,1.877845001E0,2.065000674E1
2.557158208E0,1.819915466E0,2.152374115E1,2.377805328E0,2.173102583E1
2.567163208E0,1.589694214E0,2.054193283E1,3.278632050E0,2.086258757E1
2.577167208E0,2.608325958E0,1.666828812E1,3.778891754E0,1.728916470E1
2.587172208E0,4.017495575E0,1.256367371E1,3.787723389E0,1.372344768E1
2.597177208E0,4.504582672E0,9.751172333E0,3.541186066E0,1.131002324E1
2.607182208E0,4.533023529E0,7.734116821E0,3.452869720E0,9.606621395E0
2.617186208E0,4.567601624E0,6.115981750E0,3.526666260E0,8.408661741E0
2.627191208E0,4.498295746E0,4.780458984E0,2.987337799E0,7.211909584E0
2.637196208E0,4.375700684E0,3.692970428E0,2.228266296E0,6.144099425E0
2.647201208E0,4.085154877E0,3.216960297E0,1.210083618E0,5.338691439E0
2.657205208E0,3.863166504E0,3.189417572E0,-1.282832336E-1,5.011276930E0
2.667210208E0,3.706891479E0,3.444936218E0,-1.274150391E0,5.218437430E0
2.677215208E0,3.737577667E0,3.971990204E0,-1.778002625E0,5.736504714E0
2.687220208E0,3.995341644E0,4.923262024E0,-1.685944061E0,6.560767576E0
2.697224208E0,4.409680023E0,6.213728485E0,-1.153650970E0,7.706270833E0
2.707229208E0,4.878954163E0,7.439529419E0,-2.558180237E-1,8.900350249E0
2.717234208E0,5.956862640E0,8.446485443E0,2.116748199E0,1.055025838E1
2.727239208E0,7.489525452E0,8.926986237E0,6.194418640E0,1.319677601E1
2.737243208E0,7.417076111E0,8.333620148E0,6.521638184E0,1.292261612E1
2.747248208E0,5.999224548E0,7.027436371E0,3.650009766E0,9.934693172E0
2.757253208E0,3.907324677E0,5.493875427E0,1.198856964E0,6.847416400E0
2.767258208E0,1.311273193E0,4.119134216E0,-9.864486694E-2,4.323937429E0
2.777262208E0,-1.251397705E-1,3.665577393E0,-1.122815094E0,3.835730871E0
2.787267208E0,2.905458069E-1,4.253704376E0,-3.413351898E0,5.461628783E0
2.797272208E0,1.555565186E0,4.588408356E0,-3.905079346E0,6.222774219E0
2.807277208E0,1.520388336E0,4.588707733E0,-2.260149994E0,5.336299968E0
2.817281208E0,8.967851257E-1,4.734803925E0,-2.851570129E-1,4.827411966E0
2.827286208E0,1.064286804E-1,5.177283783E0,1.151555328E0,5.304872676E0
2.837291208E0,-4.760101318E-2,5.573659515E0,7.872129822E-1,5.629178495E0
2.847295208E0,4.538562012E-1,6.434070282E0,1.314266968E-1,6.451396657E0
2.857300208E0,1.535506897E0,7.936346283E0,-1.754351807E-1,8.085428329E0
2.867305208E0,3.318149872E0,1.016835480E1,-9.410929871E-1,1.073737463E1
2.877313333E0,5.423372040E0,1.296783325E1,-1.809886322E0,1.417227406E1
2.887317333E0,7.021149445E0,1.586865097E1,-1.593885498E0,1.742558734E1
2.897322333E0,6.152655487E0,1.725387039E1,3.972738647E-1,1.832236446E1
2.907327333E0,4.292473755E0,1.741748016E1,4.322112122E0,1.845195381E1
2.917332333E0,3.937262421E0,1.687336166E1,8.636739807E0,1.935989782E1
2.927336333E0,3.452270966E0,1.450244202E1,5.510341187E0,1.589348481E1
2.937341333E0,3.551664276E0,1.207613754E1,7.400610352E-1,1.260932621E1
2.947346333E0,4.942871246E0,1.071905960E1,-6.489006042E-1,1.182164485E1
2.957351333E0,6.039490814E0,1.061188248E1,1.911375275E0,1.235883710E1
2.967355333E0,7.256609802E0,1.136870865E1,4.135749664E0,1.410710273E1
2.977360333E0,8.779842224E0,1.194815369E1,2.841990051E0,1.509704983E1
2.987365333E0,9.689799957E0,1.217657867E1,2.107467499E0,1.570358910E1
2.997370333E0,9.987381134E0,1.223061630E1,1.585652618E0,1.586978422E1
3.007374333E0,9.834548950E0,1.203766754E1,6.346801758E-1,1.555720450E1
3.017379333E0,9.992021484E0,1.157632690E1,-5.298980713E-2,1.529230675E1
3.027384333E0,1.051233948E1,1.102801712E1,2.152523804E-1,1.523721682E1
3.037388333E0,1.036818924E1,1.026789780E1,1.034349060E0,1.462870299E1
3.047393333E0,9.617350616E0,9.451046448E0,1.499581604E0,1.356703567E1
3.057398333E0,8.704548798E0,9.103618927E0,1.909429321E0,1.273934722E1
3.067403333E0,7.443271637E0,9.462572479E0,2.077080688E0,1.221707145E1
3.077407333E0,5.678591309E0,1.143202698E1,2.725382538E0,1.305240783E1
3.087412333E0,4.941973114E0,1.429377594E1,4.511618042E0,1.578257983E1
3.097417333E0,5.684728546E0,1.725491821E1,5.492677917E0,1.897940599E1
3.107422333E0,8.031398621E0,1.968885681E1,5.767955475E0,2.203233435E1
3.117426333E0,1.096275284E1,2.176668594E1,4.583917694E0,2.479884812E1
3.127431333E0,1.311422882E1,2.470088425E1,3.184178467E0,2.814703666E1
3.137436333E0,1.496902176E1,2.827410370E1,1.843715973E0,3.204521557E1
3.147441333E0,1.653521484E1,3.050042404E1,-6.062393188E-2,3.469427722E1
3.157445333E0,1.724728409E1,3.060655334E1,-1.415306854E0,3.516010537E1
3.167450333E0,1.747301468E1,2.981410126E1,-2.041454773E0,3.461725601E1
3.177455333E0,1.694416443E1,2.857288239E1,-2.308649139E0,3.329931196E1
3.187460333E0,1.589559494E1,2.619732239E1,-1.938917999E0,3.070389294E1
3.197464333E0,1.417522247E1,2.199136871E1,3.447331238E-1,2.616631558E1
3.207469333E0,1.199470688E1,1.745999176E1,3.417094116E0,2.145695313E1
3.217474333E0,1.008348129E1,1.427311890E1,4.365372162E0,1.801263424E1
3.227479333E0,8.565338287E0,1.183513870E1,4.112398224E0,1.517719827E1
3.237483333E0,7.114704895E0,9.823921051E0,3.205134888E0,1.254596908E1
3.247488333E0,5.565576324E0,7.560777283E0,2.152374115E0,9.631910884E0
3.257493333E0,4.169429626E0,5.463039551E0,1.956581268E0,7.145428945E0
3.267497333E0,2.677482147E0,3.042722626E0,2.871478729E0,4.967138182E0
3.277502333E0,3.826043701E-1,-2.758763123E-1,7.158563690E0,7.174087256E0
3.287507333E0,-1.100960541E0,-2.735561371E0,8.910969543E0,9.386202018E0
3.297512333E0,-3.047662354E-1,-1.996248779E0,2.927911377E0,3.556762106E0
3.307516333E0,-2.853067017E-1,-1.787882080E0,-2.204914856E-1,1.823880134E0
3.317521333E0,-5.284011841E-1,-1.536854095E0,-1.322649536E0,2.095359186E0
3.327526333E0,-4.281097412E-1,-1.181193695E0,-1.980082397E0,2.345042174E0
3.337531333E0,-4.665797424E-1,-1.003363495E0,-2.209255829E0,2.470879656E0
3.347535333E0,-5.343887329E-1,-1.040037231E0,-1.943558350E0,2.268186019E0
3.357540333E0,-5.903723145E-1,-1.226998444E0,-1.883982239E0,2.324533013E0
3.367545333E0,-7.147636414E-1,-1.554816742E0,-1.957030334E0,2.599674959E0
3.377550333E0,-8.424481201E-1,-1.935175781E0,-2.155517578E0,3.016766509E0
3.387554333E0,-8.961863708E-1,-2.313439178E0,-2.315385132E0,3.393546692E0
3.397559333E0,-9.819580078E-1,-2.661166077E0,-2.323168945E0,3.666491561E0
3.407564333E0,-1.189276886E0,-2.875071259E0,-2.360142059E0,3.905212516E0
3.417568333E0,-1.516646118E0,-2.906954956E0,-2.276915131E0,3.991859852E0
3.427573333E0,-1.436412964E0,-2.801274719E0,-1.997895355E0,3.728539675E0
3.437578333E0,-1.366957397E0,-2.814597015E0,-1.936972046E0,3.679998586E0
3.447583333E0,-1.311871948E0,-2.700983276E0,-1.854792938E0,3.529387413E0
3.457587333E0,-1.216520233E0,-2.470911713E0,-1.682800598E0,3.227560073E0
3.467592333E0,-1.204994202E0,-2.296524353E0,-1.577868805E0,3.035737982E0
3.477597333E0,-1.210981750E0,-1.998344421E0,-1.333277435E0,2.690257598E0
3.487602333E0,-1.265917511E0,-1.543739777E0,-9.680369568E-1,2.218732790E0
3.497606333E0,-1.257984009E0,-1.009800110E0,-6.976991272E-1,1.757556287E0
3.507611333E0,-1.160536652E0,-5.222639465E-1,-7.126679993E-1,1.458595429E0
3.517616333E0,-1.096469879E0,-1.950444031E-1,-7.553292847E-1,1.345663719E0
3.527621333E0,-1.100361786E0,1.571731567E-2,-6.915618896E-1,1.299731103E0
3.537625333E0,-1.125659180E0,1.725910950E-1,-7.162605286E-1,1.345334687E0
3.547630333E0,-1.123713226E0,3.049159241E-1,-7.093748474E-1,1.363421362E0
3.557635333E0,-1.099613342E0,3.805087280E-1,-6.535409546E-1,1.334560667E0
3.567640333E0,-1.091380463E0,4.129911804E-1,-6.397695923E-1,1.330781034E0
3.577644333E0,-1.181044006E0,3.685336304E-1,-6.786886597E-1,1.411134394E0
3.587649333E0,-1.297501831E0,2.966830444E-1,-7.062313843E-1,1.506749680E0
3.597654333E0,-1.366208954E0,2.023791504E-1,-7.201524353E-1,1.557595505E0
3.607658333E0,-1.393751678E0,1.288819885E-1,-7.309300232E-1,1.579054466E0
3.617663333E0,-1.430126038E0,1.125659180E-1,-6.236032104E-1,1.564229054E0
3.627668333E0,-1.411115570E0,1.341210938E-1,-5.147795105E-1,1.508056221E0
3.637673333E0,-1.374741211E0,1.772314453E-1,-3.890409851E-1,1.439679572E0
3.647677333E0,-1.274300079E0,2.177970886E-1,-2.984793091E-1,1.326787911E0
3.657682333E0,-1.151555328E0,1.839674377E-1,-2.615061951E-1,1.195118899E0
3.667687333E0,-1.026415558E0,8.487350464E-2,-2.389031982E-1,1.057263991E0
3.677692333E0,-9.244775391E-1,1.990859985E-2,-1.510359192E-1,9.369455275E-1
3.687696333E0,-8.681945801E-1,1.092727661E-2,-7.334747314E-2,8.713558894E-1
3.697701333E0,-7.708969116E-1,8.367599487E-2,6.750961304E-2,7.783580592E-1
3.707706333E0,-6.276448059E-1,3.995191956E-1,1.785786438E-1,7.651430729E-1
3.717711333E0,-4.370910645E-1,8.059240723E-1,1.227447510E-1,9.250018826E-1
3.727715333E0,1.351689148E-1,1.642085266E0,1.489402771E-1,1.654357236E0
3.737720333E0,1.657503204E0,4.248016205E0,7.978408813E-1,4.629201726E0
3.747725333E0,-6.487509155E-1,2.956950989E0,4.379891968E-1,3.058802288E0
3.757730333E0,6.658154297E-1,1.231384323E1,1.168425247E1,1.698810764E1
3.767734333E0,1.218436249E1,3.191543152E1,6.124514008E1,7.012860074E1
3.777739333E0,1.296873138E1,4.688235764E1,2.575873444E1,5.504230964E1
3.787744333E0,1.558259583E0,4.433615250E1,-5.842500458E0,4.474659096E1
3.797748333E0,6.361022186E0,5.367912369E1,-7.873626709E-1,5.406043713E1
3.807753333E0,8.832832031E0,5.880701019E1,-9.837542725E-1,5.947479417E1
3.817758333E0,1.138741974E1,5.350802948E1,-1.195803314E1,5.599800982E1
3.827763333E0,1.344084961E1,4.161750595E1,-1.043614792E1,4.496205537E1
3.837767333E0,1.275527527E1,2.815525085E1,1.584604797E0,3.095038239E1
3.847772333E0,1.325448715E1,2.256542496E1,7.505392456E0,2.722518593E1
3.857777333E0,1.975906082E1,2.100207596E1,1.793270874E1,3.395717482E1
3.867782333E0,1.924907135E1,1.930879715E1,6.135441284E0,2.794637785E1
3.877783083E0,1.048764084E1,1.800231400E1,-7.693401489E0,2.220951026E1
3.887788083E0,5.886359253E0,1.726210327E1,-2.169438629E0,1.836670625E1
3.897793083E0,5.356610870E0,1.707604019E1,6.245312805E0,1.895490334E1
3.907798083E0,3.376079407E0,2.079505646E1,3.278033295E0,2.132082990E1
3.917802083E0,2.853216705E0,2.111643814E1,-1.291963348E0,2.134745827E1
3.927807083E0,2.840642853E0,1.923604843E1,-2.290836182E0,1.957914047E1
3.937812083E0,2.500999146E0,1.765892807E1,-1.964664459E0,1.794303887E1
3.947816083E0,2.252216492E0,1.562540680E1,-1.267264709E0,1.583766954E1
3.957821083E0,1.770069122E0,1.289358765E1,-2.371069336E-1,1.301668033E1
3.967826083E0,1.422641602E0,1.063059357E1,6.303392029E-1,1.074387064E1
3.977831083E0,1.080902252E0,8.315956879E0,1.138532410E0,8.462844943E0
3.987835083E0,8.928932190E-1,6.328390045E0,1.581012268E0,6.583720730E0
3.997840083E0,7.084767151E-1,4.420607300E0,1.758094025E0,4.809844359E0
4.007845083E0,5.695655823E-1,2.620899811E0,1.642983398E0,3.145300497E0
4.017850083E0,4.872367859E-1,1.179247742E0,1.079854431E0,1.671559306E0
4.027854083E0,3.836521912E-1,-5.089416504E-2,5.752537537E-1,6.933225086E-1
4.037859083E0,3.159928894E-1,-8.930429077E-1,4.294569397E-1,1.040101151E0
4.047864083E0,1.383123779E-1,-1.299298096E0,5.233117676E-1,1.407537233E0
4.057869083E0,-7.918533325E-2,-1.509311371E0,1.078507233E0,1.856736110E0
4.067873083E0,-2.168989563E-1,-1.599274292E0,1.371148682E0,2.117728057E0
4.077878083E0,-1.679507446E-1,-1.451980591E0,8.442443848E-1,1.687958433E0
4.087883083E0,-1.008901978E-1,-1.231189728E0,2.565664673E-1,1.261678774E0
4.097887083E0,-8.996292114E-2,-1.345102844E0,1.225950623E-1,1.353670764E0
4.107892083E0,-5.523513794E-2,-1.585203552E0,9.041198730E-2,1.588740240E0
4.117897083E0,1.945953369E-2,-1.723216553E0,6.885681152E-2,1.724701488E0
4.127902083E0,5.703140259E-2,-1.921853485E0,1.326242065E-1,1.927268165E0
4.137906083E0,9.131011963E-3,-2.212698669E0,5.673202515E-2,2.213444668E0
4.147911083E0,-9.116043091E-2,-2.488125916E0,-9.624984741E-2,2.491655038E0
4.157916083E0,-1.945953369E-1,-2.405198364E0,-1.028361511E-1,2.415247770E0
4.167921083E0,-3.014730835E-1,-2.032024384E0,5.673202515E-2,2.055049303E0
4.177925083E0,-5.926176453E-1,-1.791324921E0,3.450325012E-1,1.918094907E0
4.187930083E0,-1.457968140E0,-1.508413239E0,1.261277161E0,2.447815694E0
4.197935083E0,-2.092947693E0,6.303392029E-1,2.259700928E0,3.143883878E0
4.207939083E0,-1.237626343E0,3.294049988E0,2.490071869E0,4.310793685E0
4.217944083E0,-7.824229431E-1,4.064048767E0,1.586101685E0,4.432199973E0
4.227949083E0,-4.402345276E-1,3.749702454E0,3.261717224E-1,3.789520144E0
4.237954083E0,-2.483335876E-1,2.813698883E0,-9.377998352E-1,2.976245875E0
4.247958083E0,-4.406835938E-1,1.950893097E0,-1.801354065E0,2.691665353E0
4.257963083E0,-6.168672180E-1,1.755249939E0,-2.225422211E0,2.900677771E0
4.267968083E0,-6.183641052E-1,2.293979645E0,-2.818638611E0,3.686385818E0
4.277973083E0,1.457369385E0,1.200293976E1,-3.410507812E0,1.256288390E1
4.287977083E0,3.336711273E0,3.286610458E1,-2.206112366E0,3.310863036E1
4.297982083E0,2.405048676E0,3.581706802E1,-1.498384094E0,3.592898239E1
4.307987083E0,4.479135590E0,4.129268143E1,7.391629028E-1,4.154147996E1
4.317991083E0,7.211104431E0,4.742438049E1,7.172484741E0,4.850274662E1
4.327996083E0,8.070916443E0,4.114868088E1,5.688171387E0,4.231676883E1
4.338001083E0,6.688241730E0,2.472019409E1,5.233566742E0,2.613830129E1
4.348006083E0,4.941673737E0,1.335268295E1,8.812174988E0,1.674421421E1
4.358010083E0,4.283043365E0,8.744216309E0,8.506211243E0,1.292909158E1
4.368015083E0,3.507356415E0,6.889573059E0,2.942131805E0,8.271874365E0
4.378020083E0,2.430196381E0,5.648054810E0,-1.058149567E0,6.239075099E0
4.388025083E0,1.492995300E0,4.114194489E0,-2.617456970E0,5.099677661E0
4.398029083E0,1.051563263E0,2.762804718E0,-3.074905701E0,4.265433187E0
4.408034083E0,1.147813110E0,1.879790955E0,-3.106639709E0,3.808188448E0
4.418039083E0,1.617386627E0,1.534010010E0,-2.671045532E0,3.479024353E0
4.428043083E0,2.343227234E0,1.678160248E0,-1.596879272E0,3.294990000E0
4.438048083E0,3.323089600E0,2.972817993E0,-1.330882416E0,4.653151546E0
4.448053083E0,3.684288483E0,5.096751251E0,-1.659598846E0,6.504238869E0
4.458058083E0,3.415597229E0,6.502478027E0,-9.701325989E-1,7.408757128E0
4.468062083E0,3.353775787E0,7.195237427E0,6.240522766E-1,7.962957673E0
4.478067083E0,3.477568359E0,7.782915344E0,3.416345673E0,9.183608806E0
4.488072083E0,2.900518341E0,8.185578003E0,5.221292267E0,1.013304430E1
4.498077083E0,1.314865723E0,7.779472504E0,4.714446259E0,9.191031924E0
4.508081083E0,2.106120300E-1,6.777456207E0,2.090402985E0,7.095636314E0
4.518086083E0,1.517843628E-1,5.942941589E0,-2.959346008E-1,5.952240798E0
4.528091083E0,2.061213684E-1,5.635181580E0,-1.296903076E0,5.786165833E0
4.538096083E0,1.672023010E-1,5.595963135E0,-1.398990784E0,5.770609606E0
4.548100083E0,1.230441284E-1,5.791606293E0,-1.064586182E0,5.889922499E0
4.558105083E0,-2.950364685E-1,6.095324707E0,-6.905140686E-1,6.141403706E0
4.568110083E0,-6.408174133E-1,6.621330872E0,-4.721182251E-1,6.669000306E0
4.578114083E0,-9.621990967E-1,7.985743561E0,7.508386230E-1,8.078470521E0
4.588119083E0,-1.840273132E0,1.005848328E1,2.645149384E0,1.056203135E1
4.598124083E0,-2.597398682E0,1.148860931E1,2.706671448E0,1.208555726E1
4.608129083E0,-2.545007629E0,1.176972473E1,8.631051636E-1,1.207263164E1
4.618133083E0,-1.500629425E0,1.180340469E1,-1.186432800E0,1.195741920E1
4.628138083E0,6.435118103E-1,1.219005066E1,-2.020498352E0,1.237311020E1
4.638143083E0,4.001778259E0,1.306303528E1,-3.936813354E-2,1.366230836E1
4.648148083E0,7.709268494E0,1.485810242E1,5.658383331E0,1.766955942E1
4.658152083E0,9.132359161E0,1.627355896E1,6.975644073E0,1.992205600E1
4.668157083E0,7.694149933E0,1.604498428E1,1.462309113E0,1.785440595E1
4.678162083E0,6.461613007E0,1.530537231E1,3.803590393E-1,1.661780784E1
4.688166083E0,5.842051392E0,1.373947861E1,1.557960205E0,1.501099853E1
4.698171083E0,5.568270721E0,1.070004913E1,6.186634827E-1,1.207805592E1
4.708176083E0,5.866300964E0,7.830067291E0,-5.550457764E-1,9.799567164E0
4.718181083E0,6.451733551E0,6.602769470E0,8.472381592E-2,9.231934175E0
4.728185083E0,7.587571564E0,7.627987518E0,1.577419739E0,1.087408336E1
4.738190083E0,8.471932526E0,9.921817474E0,8.749305725E-1,1.307599351E1
4.748195083E0,9.357041931E0,1.191641968E1,8.695417786E-1,1.517601379E1
4.758200083E0,9.709708557E0,1.289897644E1,1.697470093E0,1.623402101E1
4.768204083E0,8.453969879E0,1.240530304E1,5.090913391E-1,1.502066324E1
4.778209083E0,6.961872711E0,1.085048630E1,1.421593781E0,1.297002904E1
4.788214083E0,4.876559143E0,9.701625366E0,1.690584412E0,1.098910549E1
4.798218083E0,3.256178741E0,9.164991302E0,1.576820984E0,9.853229419E0
4.808223083E0,2.799179077E0,9.128616943E0,2.993774414E0,1.000648470E1
4.818228083E0,2.954106903E0,9.804162140E0,3.903133392E0,1.095822947E1
4.828233083E0,2.934797058E0,1.088162155E1,3.507356415E0,1.180357024E1
4.838237083E0,3.489992523E0,1.192300598E1,4.061653748E0,1.307039214E1
4.848242083E0,4.335733795E0,1.260229340E1,5.248685303E0,1.432358488E1
4.858247083E0,4.445305939E0,1.304851547E1,5.588628387E0,1.487471910E1
4.868251083E0,5.227579193E0,1.381267639E1,5.463937683E0,1.574713397E1
4.878256500E0,7.340136108E0,1.575024719E1,5.810766449E0,1.832246958E1
4.888261500E0,9.117240601E0,1.928230225E1,4.377946014E0,2.177378395E1
4.898266500E0,1.053149963E1,2.423310699E1,3.237767029E0,2.662027600E1
4.908270500E0,1.151839737E1,2.927956284E1,2.157762909E0,3.153763178E1
4.918275500E0,1.243179794E1,3.308614700E1,7.286846924E-1,3.535213862E1
4.928280500E0,1.293774582E1,3.380121002E1,7.021897888E-1,3.619944939E1
4.938285500E0,1.246068787E1,3.177188004E1,3.264710999E-1,3.412957202E1
4.948289500E0,1.162826889E1,2.970003845E1,-1.984123993E0,3.195693461E1
4.958294500E0,1.123877884E1,2.820090591E1,-3.746708679E0,3.058821783E1
4.968299500E0,1.077444443E1,2.668904984E1,-4.112398224E0,2.907414406E1
4.978303500E0,9.561067657E0,2.463921249E1,-2.016606445E0,2.650606551E1
4.988308500E0,7.754773865E0,2.258323792E1,1.294957123E0,2.391267585E1
4.998313500E0,6.088439026E0,1.849104767E1,3.929328918E0,1.986020039E1
5.008318500E0,3.767515411E0,1.161734161E1,1.062310913E1,1.618663789E1
5.018322500E0,1.797312469E0,6.381080475E0,1.208616669E1,1.378491731E1
5.028327500E0,1.070274353E-1,2.951412506E0,1.188333847E1,1.224483662E1
5.038332500E0,-2.963387604E0,-2.853067017E0,2.328168549E1,2.364230396E1
5.048337500E0,-1.529070282E0,-2.035317535E0,1.201940552E1,1.228603607E1
5.058341500E0,6.605763245E-1,-4.553530884E-1,-1.017134857E0,1.295480927E0
5.068346500E0,1.195264435E0,3.694317627E-1,-5.167853394E0,5.317127570E0
5.078351500E0,9.602531433E-1,4.649331665E-1,-5.090164948E0,5.200771879E0
5.088355500E0,6.242019653E-1,-2.378553772E-1,-4.026776276E0,4.081804803E0
5.098360500E0,2.971321106E-1,-7.414082336E-1,-3.447480927E0,3.538799005E0
5.108365500E0,1.354682922E-1,-1.094523926E0,-3.121907959E0,3.310988310E0
5.118370500E0,-8.023315430E-2,-1.335672455E0,-2.882106628E0,3.177577203E0
5.128374500E0,-2.248324585E-1,-1.546583862E0,-3.039579163E0,3.417822810E0
5.138379500E0,-3.378474426E-1,-1.766626282E0,-3.304228821E0,3.762052288E0
5.148384500E0,-4.974156189E-1,-2.021246796E0,-3.155438232E0,3.780165518E0
5.158389500E0,-7.155120850E-1,-2.362836456E0,-3.209775238E0,4.049396343E0
5.168393500E0,-8.864566040E-1,-2.610271912E0,-3.440445557E0,4.408626815E0
5.178398500E0,-9.946815491E-1,-2.620600433E0,-3.443589020E0,4.440185058E0
5.188403500E0,-1.183439026E0,-2.471959534E0,-3.316503296E0,4.302360512E0
5.198407500E0,-1.236428833E0,-2.242786102E0,-3.045267334E0,3.979007275E0
5.208412500E0,-1.421444092E0,-2.026934967E0,-2.693947906E0,3.658732566E0
5.218417500E0,-1.598974915E0,-1.437610474E0,-2.351011047E0,3.186015944E0
5.228422500E0,-1.355131989E0,-2.134561157E-1,-2.023641815E0,2.444805190E0
5.238426500E0,-1.188528442E0,5.219645691E-1,-1.694626007E0,2.134667228E0
5.248431500E0,-1.336570587E0,8.123606873E-1,-1.493144989E0,2.162367401E0
5.258436500E0,-1.572779388E0,1.012344818E0,-1.745370483E0,2.558279727E0
5.268441500E0,-1.765428772E0,1.107846222E0,-1.788031769E0,2.746109904E0
5.278445500E0,-1.812431030E0,1.079405365E0,-1.582209778E0,2.636931922E0
5.288450500E0,-1.815574493E0,9.616003418E-1,-1.282982025E0,2.422195045E0
5.298455500E0,-1.823358307E0,8.238867188E-1,-1.043929138E0,2.256814766E0
5.308459500E0,-1.726809082E0,6.282435608E-1,-8.089178467E-1,2.007712046E0
5.318464500E0,-1.677711182E0,3.260220337E-1,-6.227050781E-1,1.819001591E0
5.328469500E0,-1.792821808E0,2.365081787E-2,-6.623725891E-1,1.911414880E0
5.338474500E0,-1.885030060E0,-3.323089600E-1,-6.816824341E-1,2.031860850E0
5.348478500E0,-1.900897064E0,-5.881269836E-1,-6.824308777E-1,2.103571938E0
5.358483500E0,-1.858235779E0,-7.578739929E-1,-6.674620056E-1,2.114927594E0
5.368488500E0,-1.773811340E0,-8.467890930E-1,-6.143225098E-1,2.059332558E0
5.378492500E0,-1.681752777E0,-8.675958252E-1,-5.650749207E-1,1.974923944E0
5.388497500E0,-1.600771179E0,-9.611512756E-1,-4.611909485E-1,1.923272532E0
5.398502500E0,-1.488354950E0,-1.036444702E0,-3.028202820E-1,1.838781716E0
5.408507500E0,-1.230740662E0,-1.014590149E0,-1.252894592E-1,1.599941622E0
5.418511500E0,-8.846603394E-1,-9.357041931E-1,-2.095642090E-2,1.287868559E0
5.428516500E0,-5.665718079E-1,-7.900570679E-1,2.709365845E-2,9.725882224E-1
5.438521500E0,-3.616479492E-1,-6.890171814E-1,1.571731567E-2,7.783193107E-1
5.448525500E0,-2.186952209E-1,-6.276448059E-1,-1.930984497E-2,6.649349383E-1
5.458530500E0,-1.191522217E-1,-5.504054260E-1,-8.771759033E-2,5.699454014E-1
5.468535500E0,-2.230361938E-2,-4.553530884E-1,-1.812730408E-1,4.906157375E-1
5.478540500E0,1.152603149E-1,-3.314108276E-1,-2.350112915E-1,4.223131350E-1
5.488544500E0,2.257305908E-1,-5.328918457E-2,-2.945874023E-1,3.749343602E-1
5.498549500E0,9.017248535E-1,7.369175720E-1,-1.723964996E0,2.080435178E0
5.508554500E0,4.969665527E0,6.401138763E0,2.210004272E0,8.399778081E0
5.518559500E0,-1.803599396E0,2.611918488E0,1.904788971E0,3.701798210E0
5.528563500E0,-1.971101074E0,2.807861023E0,3.363505554E0,4.804424272E0
5.538568500E0,9.151669006E0,3.099858810E1,5.883036163E1,6.712433955E1
5.548573500E0,4.105512543E0,5.121330139E1,3.974025970E1,6.495341187E1
5.558577500E0,-6.355334015E0,4.109434387E1,-2.366234390E1,4.784393261E1
5.568582500E0,-3.296445007E0,5.216846512E1,-2.467483841E1,5.780365865E1
5.578587500E0,3.543880463E0,6.178102570E1,-2.925351700E1,6.844868502E1
5.588592500E0,1.250170258E1,5.932403503E1,-1.701466782E1,6.296929903E1
5.598596500E0,2.129995651E1,4.421999405E1,4.208094223E1,6.465215944E1
5.608601500E0,1.439721085E1,2.907748306E1,1.441622131E1,3.550502976E1
5.618606500E0,1.279853531E1,2.014555710E1,-3.442541199E0,2.411425028E1
5.628611500E0,1.241188934E1,1.493519211E1,1.039408539E1,2.202616561E1
5.638615500E0,5.598358154E0,1.701302124E1,2.325414276E0,1.806078784E1
5.648620500E0,2.891087952E0,1.664673294E1,2.132615204E0,1.702997812E1
5.658625500E0,7.240443420E-1,1.724548782E1,5.710325317E0,1.818072897E1
5.668629500E0,-3.207978973E0,2.335862549E1,1.856738892E0,2.365087722E1
5.678634500E0,-4.766837311E0,2.587863510E1,5.354365540E-1,2.631944500E1
5.688639500E0,-3.993545380E0,2.438264603E1,3.287164307E-1,2.470971239E1
5.698644500E0,-2.600542145E0,2.181024536E1,-3.547622681E-1,2.196760065E1
5.708648500E0,-1.563798065E0,1.894310760E1,-9.216334534E-1,1.902987647E1
5.718653500E0,-1.101110229E0,1.606504257E1,-1.443897400E0,1.616733980E1
5.728658500E0,-7.547305298E-1,1.331136887E1,-1.572929077E0,1.342521006E1
5.738662500E0,-6.291416931E-1,1.053643936E1,-3.963757324E-1,1.056264585E1
5.748667500E0,-2.884501648E-1,8.090525665E0,8.430468750E-1,8.139443290E0
5.758672500E0,2.064207458E-1,6.178401947E0,2.031874695E0,6.507209457E0
5.768677500E0,7.701484680E-1,4.706812134E0,3.072211304E0,5.673243466E0
5.778681500E0,1.510808258E0,3.074306946E0,3.960913239E0,5.236672462E0
5.788686500E0,2.517913971E0,1.433419189E0,5.160368958E0,5.918106886E0
5.798691500E0,3.324137421E0,2.887495422E-1,6.061644745E0,6.919306533E0
5.808695500E0,3.742816772E0,-4.977149963E-1,5.629194031E0,6.778216804E0
5.818700500E0,3.796255646E0,-7.934999084E-1,3.971990204E0,5.551387683E0
5.828705500E0,3.621868286E0,-9.994715881E-1,2.411036224E0,4.464299387E0
5.838710500E0,3.046764221E0,-1.123413849E0,4.688250732E-1,3.280949229E0
5.848714500E0,2.385439453E0,-8.223898315E-1,-1.686093750E0,3.034725449E0
5.858719500E0,1.892963562E0,-5.210664368E-1,-2.604583740E0,3.261698597E0
5.868724500E0,1.488205261E0,-4.062551880E-1,-2.214494934E0,2.698849012E0
5.878731708E0,1.094074860E0,-4.733157349E-1,-1.243314514E0,1.722457130E0
5.888736708E0,7.044351196E-1,-1.065334625E0,4.543052673E-1,1.355566294E0
5.898741708E0,-8.143066406E-2,-2.194885712E0,2.965782623E0,3.690531237E0
5.908746708E0,-4.110452271E-1,-2.100731506E0,2.218386841E0,3.082737617E0
5.918750708E0,-1.145118713E-1,-1.229393463E0,-2.429447937E-1,1.258389220E0
5.928755708E0,3.951782227E-2,-8.149053955E-1,-1.074016571E0,1.348756485E0
5.938760708E0,1.204994202E-1,-6.786886597E-1,-1.093775482E0,1.292858543E0
5.948764708E0,2.375559998E-1,-6.015989685E-1,-9.813592529E-1,1.175338315E0
5.958769708E0,3.597019958E-1,-4.519102478E-1,-8.982820129E-1,1.067950829E0
5.968774708E0,4.665797424E-1,1.770817566E-1,-7.955955505E-1,9.391628637E-1
5.978779708E0,2.246827698E-1,8.508306885E-1,-7.256909180E-1,1.140623740E0
5.988783708E0,8.247848511E-2,1.193917236E0,-9.785151672E-1,1.545876127E0
5.998788708E0,1.158590698E-1,1.661993866E0,-1.252744904E0,2.084470371E0
6.008793708E0,-2.215393066E-2,3.020269318E0,-1.439257050E0,3.345740337E0
6.018798708E0,-8.461903381E-1,7.786956940E0,-1.831591187E0,8.044094899E0
6.028802708E0,-2.865940247E0,2.006562332E1,-1.604812775E0,2.033268986E1
6.038807708E0,-5.807772675E0,2.933943832E1,-1.513352966E0,2.994700489E1
6.048812708E0,-7.015161896E0,3.302881622E1,-1.115180969E0,3.378400252E1
6.058816708E0,-8.567733307E0,3.708448242E1,-9.955796814E-1,3.807434923E1
6.068821708E0,-1.044273422E1,3.970987289E1,-1.285975800E0,4.108014651E1
6.078826708E0,-9.246871033E0,3.914719299E1,-3.885919189E-1,4.022633897E1
6.088831708E0,-5.492528229E0,3.017230637E1,1.736089783E0,3.071725811E1
6.098835708E0,-4.032464447E0,1.696467178E1,4.296365662E0,1.795883115E1
6.108840708E0,-3.733386383E0,1.049811905E1,5.766757965E0,1.254608205E1
6.118845708E0,-3.542383575E0,7.323071594E0,5.423970795E0,9.777285827E0
6.128849708E0,-3.048111420E0,4.719835052E0,4.286935272E0,7.067222947E0
6.138854708E0,-2.414778442E0,2.150128784E0,3.777694244E0,4.972442309E0
6.148859708E0,-1.872755585E0,6.562353516E-1,3.217409363E0,3.780156257E0
6.158864708E0,-1.431922302E0,4.093986511E-1,1.905687103E0,2.418605398E0
6.168868708E0,-1.144969025E0,8.701405334E-1,5.870791626E-1,1.553306331E0
6.178873708E0,-8.885522461E-1,1.466799774E0,-3.107537842E-1,1.742869641E0
6.188878708E0,-8.599617004E-1,2.042053528E0,-7.262896729E-1,2.331740428E0
6.198882708E0,-1.301693115E0,3.523672485E0,-9.409432983E-1,3.872472988E0
6.208887708E0,-1.660347290E0,5.777984619E0,-1.058149567E0,6.104223119E0
6.218892708E0,-1.788630524E0,8.085585938E0,-1.175056458E0,8.364009612E0
6.228897708E0,-1.862726440E0,1.059107574E1,-1.437311096E0,1.084926257E1
6.238901708E0,-1.762584686E0,1.323038727E1,-1.820364532E0,1.347084181E1
6.248906708E0,-1.351988525E0,1.480660950E1,-1.673370209E0,1.496207625E1
6.258911708E0,-8.951385498E-1,1.511107635E1,-1.036893768E0,1.517303695E1
6.268915708E0,-6.426136780E-1,1.486498810E1,-3.911366272E-1,1.488401194E1
6.278920708E0,-2.365081787E-1,1.402014496E1,4.225712585E-1,1.402850552E1
6.288925708E0,4.071533203E-1,1.266157013E1,1.574875031E0,1.276563212E1
6.298930708E0,8.951385498E-1,1.103026245E1,2.560425568E0,1.135886182E1
6.308934708E0,4.882846069E-1,9.648635559E0,2.516866150E0,9.983446560E0
6.318939708E0,-7.186555481E-1,8.650660858E0,1.760788422E0,8.857244207E0
6.328944708E0,-1.999242554E0,8.206235046E0,9.761201477E-1,8.502474638E0
6.338948708E0,-2.919229431E0,8.178692322E0,2.522254944E-1,8.687722732E0
6.348953708E0,-3.439996490E0,8.337362366E0,-3.122506714E-1,9.024560242E0
6.358958708E0,-3.710334320E0,8.628207550E0,-6.499484253E-1,9.414615194E0
6.368963708E0,-3.818259888E0,8.796008606E0,-7.842192078E-1,9.621012199E0
6.378967708E0,-3.786376190E0,8.863218842E0,-8.253836060E-1,9.673393974E0
6.388972708E0,-3.736529846E0,8.886420593E0,-8.057743835E-1,9.673644536E0
6.398977708E0,-3.798800354E0,8.859626312E0,-7.746391296E-1,9.670777027E0
6.408981708E0,-3.981121216E0,8.863817596E0,-6.646179199E-1,9.739522858E0
6.418986708E0,-4.274511108E0,8.972042542E0,-4.629872131E-1,9.949037629E0
6.428991708E0,-4.591252441E0,9.126670990E0,-1.442999268E-1,1.021746274E1
6.438996708E0,-4.769681396E0,8.968599701E0,5.463638306E-1,1.017271619E1
6.449000708E0,-4.306843872E0,8.384364624E0,1.753902740E0,9.587630005E0
6.459005708E0,-3.367996216E0,7.814799042E0,2.533331909E0,8.878752904E0
6.469010708E0,-2.598147125E0,7.321574707E0,2.539618835E0,8.173462455E0
6.479015708E0,-2.193538513E0,6.832691345E0,2.290686493E0,7.532896311E0
6.489019708E0,-1.991159363E0,6.459217987E0,2.002386017E0,7.049522138E0
6.499024708E0,-1.899100800E0,6.279441833E0,1.674867096E0,6.770757223E0
6.509029708E0,-1.772613831E0,6.322252808E0,8.361611938E-1,6.619078931E0
6.519033708E0,-1.758393402E0,6.133944397E0,-5.517526245E-1,6.404814765E0
6.529038708E0,-1.753603363E0,5.452711029E0,-1.649869080E0,5.960641769E0
6.539043708E0,-1.648521881E0,4.951702881E0,-2.001188507E0,5.589431210E0
6.549047708E0,-1.608405304E0,4.588707733E0,-1.608255615E0,5.121493181E0
6.559052708E0,-1.624721375E0,4.348307648E0,-6.740483093E-1,4.690611908E0
6.569057708E0,-1.527872772E0,4.079616394E0,3.415896606E-1,4.369708071E0
6.579062708E0,-1.660197601E0,4.211492157E0,1.180894318E0,4.678400758E0
6.589066708E0,-2.114203491E0,5.477858734E0,2.716700592E0,6.469718295E0
6.599071708E0,-2.664309540E0,8.308322754E0,5.401966553E0,1.026196935E1
6.609076708E0,-3.005001068E0,1.072489746E1,6.287525024E0,1.279009100E1
6.619080708E0,-2.888243866E0,1.110869934E1,3.800596619E0,1.209089278E1
6.629085708E0,-2.798280945E0,1.127530289E1,1.317709808E0,1.169184291E1
6.639090708E0,-2.954256592E0,1.206550964E1,1.664089508E0,1.253289068E1
6.649095708E0,-2.719993744E0,1.296364197E1,3.885470123E0,1.380403047E1
6.659099708E0,-1.841320953E0,1.305225769E1,4.083657990E0,1.379957087E1
6.669104708E0,-6.210585022E-1,1.280527130E1,2.139500885E0,1.299762097E1
6.679109708E0,6.357279968E-1,1.280093033E1,9.520202637E-1,1.285201579E1
6.689113708E0,8.828640747E-1,1.158096725E1,9.208850098E-1,1.165102059E1
6.699118708E0,-9.520202637E-2,9.220076752E0,9.990225220E-1,9.274530971E0
6.709123708E0,2.502795410E-1,9.312285004E0,-1.734892273E-1,9.317263029E0
6.719128708E0,7.809260559E-1,1.079839462E1,-6.575825500E-1,1.084654723E1
6.729132708E0,8.925938416E-1,1.253777756E1,2.537223816E-1,1.257207083E1
6.739137708E0,7.285350037E-1,1.421309372E1,-4.302053833E-1,1.423825386E1
6.749142708E0,1.240919495E-1,1.568243820E1,-3.571572876E-1,1.568699551E1
6.759146708E0,4.225712585E-1,1.666694092E1,7.661068726E-1,1.668988933E1
6.769151708E0,1.398691406E0,1.654629181E1,1.938917999E0,1.671811931E1
6.779156708E0,1.229692841E0,1.548275345E1,3.305725708E0,1.587940872E1
6.789161708E0,-2.165995789E-1,1.451336929E1,4.680616608E0,1.525099916E1
6.799165708E0,-2.322270813E0,1.491513382E1,6.465355225E0,1.642117465E1
6.809170708E0,-4.547693024E0,1.654868683E1,6.916666718E0,1.850353550E1
6.819175708E0,-5.404810638E0,1.894056290E1,7.595205688E0,2.111028305E1
6.829179708E0,-4.623585205E0,2.212519043E1,7.753426666E0,2.389596654E1
6.839184708E0,-3.952231293E0,2.590962067E1,7.520061951E0,2.726682796E1
6.849189708E0,-4.260290680E0,2.891267578E1,5.456902313E0,2.972996267E1
6.859194708E0,-4.914430389E0,3.120530823E1,3.774251404E0,3.181458567E1
6.869198708E0,-4.962480469E0,3.273407913E1,2.771636353E0,3.322390882E1
6.879203333E0,-4.326453094E0,3.207365250E1,1.384920044E0,3.239375533E1
6.889208333E0,-3.657045135E0,2.911894684E1,2.950364685E-1,2.934917530E1
6.899212333E0,-3.197800140E0,2.646137329E1,-3.397933960E-1,2.665606238E1
6.909217333E0,-2.586471405E0,2.412143921E1,-4.282594299E-1,2.426349253E1
6.919222333E0,-2.145488434E0,2.188000031E1,4.385879517E-2,2.198498255E1
6.929227333E0,-2.022743683E0,1.996173935E1,1.759441223E0,2.014095736E1
6.939231333E0,-2.176623688E0,1.764844986E1,3.612886963E0,1.814547947E1
6.949236333E0,-1.761985931E0,1.470811432E1,4.742587738E0,1.555394997E1
6.959241333E0,-6.776408386E-1,1.104253693E1,6.206693115E0,1.268541912E1
6.969245333E0,4.808001709E-1,7.133116608E0,8.004304962E0,1.073226068E1
6.979250333E0,1.270408173E0,4.501139832E0,6.692582703E0,8.164855170E0
6.989255333E0,1.178948364E0,3.064427490E0,2.313888245E0,4.016803941E0
6.999260333E0,1.000968475E0,8.604107666E-1,1.814975739E0,2.244188385E0
7.009264333E0,1.208287354E0,-5.254972229E0,1.248299149E1,1.359778540E1
7.019269333E0,1.190025330E0,-7.237449646E0,1.374711273E1,1.558139744E1
7.029274333E0,4.339476013E-1,-4.518653412E0,4.728367310E0,6.554692715E0
7.039278333E0,-1.781295776E-2,-2.818488922E0,2.204914856E-1,2.827156451E0
7.049283333E0,-1.169068909E-1,-1.944007416E0,-1.642384644E0,2.547598746E0
7.059288333E0,-2.335144043E-2,-1.412013702E0,-2.405198364E0,2.789140935E0
7.069293333E0,2.956352234E-1,-1.165476379E0,-2.816393280E0,3.062320441E0
7.079297333E0,3.767665100E-1,-1.224753113E0,-2.958298187E0,3.223895370E0
7.089302333E0,2.764750671E-1,-1.340462494E0,-2.792443085E0,3.109825806E0
7.099307333E0,1.297801208E-1,-1.451232147E0,-2.454296265E0,2.854205280E0
7.109311333E0,5.987548828E-3,-1.510957947E0,-2.308349762E0,2.758896227E0
7.119316333E0,-2.269281006E-1,-1.451381836E0,-2.344724121E0,2.766900215E0
7.129321333E0,-5.044509888E-1,-1.413360901E0,-2.464624786E0,2.885556302E0
7.139326333E0,-7.387138367E-1,-1.347048798E0,-2.599194946E0,3.019280206E0
7.149330333E0,-1.010548553E0,-1.204844513E0,-2.765798492E0,3.181587651E0
7.159335333E0,-1.270857239E0,-8.575666809E-1,-2.716401215E0,3.119188082E0
7.169340333E0,-1.280287628E0,-7.544311523E-2,-2.476899261E0,2.789239686E0
7.179344333E0,-1.182391205E0,4.507127380E-1,-2.379601593E0,2.695124241E0
7.189349333E0,-7.812254333E-1,5.040019226E-1,-2.305206299E0,2.485620083E0
7.199354333E0,-6.283932495E-1,4.610412598E-1,-2.114053802E0,2.253144602E0
7.209359333E0,-6.301895142E-1,3.974235535E-1,-1.937121735E0,2.075457761E0
7.219363333E0,-6.782395935E-1,3.318598938E-1,-1.748214569E0,1.904309354E0
7.229368333E0,-7.837701416E-1,2.188449097E-1,-1.519789581E0,1.723934193E0
7.239373333E0,-8.797206116E-1,9.280700684E-2,-1.320553894E0,1.589460312E0
7.249377333E0,-9.885443115E-1,-2.634521484E-2,-1.109343109E0,1.486121146E0
7.259382333E0,-1.047671356E0,-2.992277527E-1,-9.180409241E-1,1.424763720E0
7.269387333E0,-1.081501007E0,-2.829116821E-1,-7.580236816E-1,1.350660339E0
7.279391333E0,-9.761201477E-1,-2.888992310E-1,-6.075865173E-1,1.185510306E0
7.289396333E0,-8.705895996E-1,-3.029699707E-1,-4.200265503E-1,1.012985369E0
7.299401333E0,-7.818241882E-1,-3.614982605E-1,-2.700384521E-1,9.026908769E-1
7.309406333E0,-6.746470642E-1,-4.857398987E-1,-2.083666992E-1,8.570347669E-1
7.319410333E0,-6.242019653E-1,-6.072871399E-1,-2.345622253E-1,9.019119699E-1
7.329415333E0,-5.948629761E-1,-7.325765991E-1,-2.694396973E-1,9.813909437E-1
7.339420333E0,-5.673202515E-1,-8.190966797E-1,-3.092568970E-1,1.043269604E0
7.349424333E0,-5.520520020E-1,-8.494834900E-1,-3.299139404E-1,1.065470235E0
7.359429333E0,-5.391787720E-1,-8.487350464E-1,-3.466790771E-1,1.063602985E0
7.369434333E0,-5.171745300E-1,-8.327183533E-1,-3.517684937E-1,1.041455915E0
7.379439333E0,-4.561015320E-1,-7.018904114E-1,-3.273692322E-1,8.988044121E-1
7.389443333E0,-4.062551880E-1,-3.983216858E-1,-3.544628906E-1,6.703337855E-1
7.399448333E0,-4.149371338E-1,2.164498901E-1,-5.306465149E-1,7.075373515E-1
7.409453333E0,-4.430786133E-1,9.259744263E-1,-7.906558228E-1,1.295717533E0
7.419457333E0,-4.441264343E-1,1.512305145E0,-1.124162292E0,1.935989670E0
7.429462333E0,-8.093669128E-1,2.893033905E0,-1.802551575E0,3.503414357E0
7.439467333E0,-4.450395355E0,1.191207870E1,-3.681294708E0,1.323841262E1
7.449472333E0,-1.513622406E1,3.570674744E1,5.051994324E-1,3.878572312E1
7.459476333E0,-1.539413773E1,5.156671646E1,3.587469818E1,6.467688685E1
7.469481333E0,-1.222941879E1,4.617522812E1,3.295067871E1,5.802979927E1
7.479486333E0,-1.721495132E1,3.902310104E1,-8.217162323E0,4.343591510E1
7.489490333E0,-1.382794464E1,4.690511032E1,-1.479897537E1,5.109120374E1
7.499495333E0,-6.773713989E0,5.435451920E1,-1.552676193E1,5.693309489E1
7.509500333E0,3.089425507E0,5.477768921E1,1.528725998E1,5.695471976E1
7.519505333E0,2.159858551E0,3.801270218E1,2.080778000E1,4.338887213E1
7.529509333E0,-3.604504395E0,2.421649155E1,-2.379002838E0,2.459858877E1
7.539514333E0,-6.790179749E0,1.814362015E1,-1.319506073E0,1.941748154E1
7.549519333E0,-9.526489563E0,1.590233093E1,2.564916229E0,1.871408367E1
7.559523333E0,-1.124566452E1,1.722782455E1,4.448299713E0,2.104875958E1
7.569528333E0,-1.081471069E1,1.895717834E1,3.259621582E0,2.206711832E1
7.579533333E0,-9.217082977E0,2.003164398E1,1.097218323E0,2.207770974E1
7.589537333E0,-7.417225800E0,2.019884628E1,1.752854919E-1,2.151834926E1
7.599542333E0,-5.823489990E0,1.945130081E1,3.653901672E-1,2.030762539E1
7.609547333E0,-4.229454803E0,1.770114029E1,1.563049622E0,1.826641124E1
7.619552333E0,-2.603386230E0,1.539743088E1,3.003504181E0,1.590218648E1
7.629556333E0,-1.423689423E0,1.310584625E1,3.753893738E0,1.370699879E1
7.639561333E0,-7.599696350E-1,1.094733490E1,3.719465332E0,1.158689422E1
7.649566333E0,-3.652404785E-1,8.809330902E0,3.545227661E0,9.502965365E0
7.659570333E0,-1.347198486E-1,7.095395050E0,3.196752319E0,7.783444337E0
7.669575333E0,7.544311523E-2,5.537584534E0,2.633473663E0,6.132350093E0
7.679580333E0,2.192939758E-1,3.966302032E0,2.151026917E0,4.517361891E0
7.689585333E0,3.887416077E-1,2.536774750E0,1.964215393E0,3.231793353E0
7.699589333E0,6.303392029E-1,9.762698364E-1,2.064955902E0,2.369487958E0
7.709594333E0,8.849597168E-1,-1.907034302E-1,2.089504852E0,2.277180719E0
7.719599333E0,1.192570038E0,-7.713459778E-1,1.914518738E0,2.383816249E0
7.729603333E0,1.465751953E0,-1.270707550E0,1.460812225E0,2.428394289E0
7.739608333E0,1.585053864E0,-1.570983124E0,5.227130127E-1,2.292076050E0
7.749613333E0,1.505569153E0,-1.669927368E0,-7.616162109E-1,2.373911359E0
7.759617333E0,1.552870789E0,-1.348845062E0,-1.806892548E0,2.737818724E0
7.769622333E0,1.617686005E0,-1.087787933E0,-2.146835632E0,2.899843760E0
7.779627333E0,1.621577911E0,-1.135838013E0,-1.989512787E0,2.806742604E0
7.789632333E0,1.494492188E0,-1.164129181E0,-1.796863403E0,2.611019291E0
7.799636333E0,1.365011444E0,-1.244811401E0,-1.529219971E0,2.398192108E0
7.809641333E0,1.352886658E0,-1.318607941E0,-1.409019928E0,2.356770326E0
7.819646333E0,1.436412964E0,-1.367406464E0,-1.339564362E0,2.393222789E0
7.829650333E0,1.444795532E0,-1.425186310E0,-1.296304321E0,2.408110263E0
7.839655333E0,1.360969849E0,-1.407822418E0,-1.091979218E0,2.242012824E0
7.849660333E0,1.280886383E0,-1.411414948E0,-8.303233337E-1,2.078989879E0
7.859665333E0,1.128952332E0,-1.443598022E0,-6.460565186E-1,1.943166911E0
7.869669333E0,8.809181213E-1,-1.455573120E0,-4.673281860E-1,1.764399467E0
7.879674583E0,5.866300964E-1,-1.397044830E0,-3.902384949E-1,1.564658177E0
7.889679583E0,2.438429260E-1,-1.240620117E0,-3.818559265E-1,1.320761749E0
7.899683583E0,-2.607577515E-1,-8.044271851E-1,-3.844006348E-1,9.289034121E-1
7.909688583E0,-4.748126221E-1,1.523831177E-1,-3.128494263E-1,5.886785236E-1
7.919693583E0,-3.872447205E-1,6.048921204E-1,-4.604425049E-1,8.531472623E-1
7.929698583E0,-3.177891541E-1,8.186476135E-1,-6.565347290E-1,1.096454154E0
7.939702583E0,-2.835104370E-1,1.134041748E0,-8.351133728E-1,1.436608228E0
7.949707583E0,-3.041674805E-1,1.461560669E0,-9.979747009E-1,1.795725744E0
7.959712583E0,-6.929090881E-1,3.109184418E0,-1.023870850E0,3.345962084E0
7.969716583E0,-4.576582947E0,1.651186340E1,4.601431274E-1,1.714055064E1
7.979721583E0,-1.160102554E1,3.216241791E1,1.348695374E-1,3.419097994E1
7.989726583E0,-1.337154373E1,3.424264206E1,-9.256750488E-1,3.677245697E1
7.999730583E0,-1.485929993E1,3.825429977E1,-1.815724182E0,4.107903480E1
8.009735583E0,-1.651500687E1,4.577076920E1,-3.336561584E-1,4.866025165E1
8.019740583E0,-1.286020706E1,5.154381409E1,6.466702423E0,5.351605307E1
8.029745583E0,-1.216370544E0,4.550611954E1,2.092962662E1,5.010325082E1
8.039749583E0,2.334395599E0,2.502975037E1,2.677212708E1,3.672444138E1
8.049754583E0,-3.829187164E0,1.500554581E1,9.586365051E0,1.821338722E1
8.059759583E0,-5.824537811E0,1.318188812E1,-1.199455719E0,1.446119322E1
8.069763583E0,-5.240751801E0,1.057760376E1,-1.535506897E0,1.190415735E1
8.079768583E0,-3.822151794E0,7.284751282E0,-1.534459076E0,8.368453276E0
8.089773583E0,-2.633024597E0,4.509372711E0,-2.589315491E0,5.828534592E0
8.099778583E0,-2.098935242E0,3.085832977E0,-2.961142273E0,4.764058970E0
8.109782583E0,-1.584155731E0,2.107617188E0,-2.213896179E0,3.442809301E0
8.119787583E0,-1.448537750E0,1.799258423E0,-1.674268341E0,2.852852426E0
8.129792583E0,-1.185534668E0,1.498234406E0,-1.020428009E0,2.165980633E0
8.139796583E0,-7.045848083E-1,1.883233795E0,-3.128494263E-1,2.034916225E0
8.149801583E0,-8.173004150E-2,2.722688141E0,4.007167053E-1,2.753231627E0
8.159806583E0,6.412664795E-1,3.367696838E0,9.755213928E-1,3.564301710E0
8.169810583E0,1.250798950E0,4.042942657E0,1.465901642E0,4.478699696E0
8.179815583E0,1.749262390E0,4.702022095E0,1.843566284E0,5.344872995E0
8.189820583E0,2.173480225E0,5.663323059E0,2.178120575E0,6.445265983E0
8.199825583E0,2.261796570E0,7.093299408E0,2.722388763E0,7.927295932E0
8.209829583E0,1.643881531E0,8.990304565E0,3.242856445E0,9.697630669E0
8.219834583E0,2.300715637E-1,1.070259384E1,2.868035889E0,1.108260248E1
8.229839583E0,-1.657203827E0,1.184277283E1,1.939816132E0,1.211447396E1
8.239843583E0,-3.533701630E0,1.294058990E1,1.463207245E0,1.349395753E1
8.249848583E0,-5.228776703E0,1.375145370E1,1.318907318E0,1.477098850E1
8.259853583E0,-6.363417206E0,1.333367249E1,1.121168518E0,1.481677830E1
8.269858583E0,-6.492448883E0,1.165177002E1,1.042282562E0,1.337916253E1
8.279862583E0,-5.995332642E0,9.946216736E0,1.229992218E0,1.167836126E1
8.289867583E0,-5.597460022E0,8.824599152E0,1.491049347E0,1.055596216E1
8.299872583E0,-5.232818298E0,8.078400879E0,1.753603363E0,9.783561359E0
8.309876583E0,-4.733456726E0,7.596253510E0,1.729054413E0,9.115827396E0
8.319881583E0,-4.183200989E0,7.309898987E0,1.226250000E0,8.511021253E0
8.329886583E0,-3.758983154E0,7.172484741E0,7.364685059E-1,8.131228540E0
8.339890583E0,-3.480562134E0,7.038064270E0,4.930746460E-1,7.867133153E0
8.349895583E0,-3.198548584E0,6.960375824E0,4.363426208E-1,7.672544528E0
8.359900583E0,-2.769840088E0,6.874753876E0,4.547543335E-1,7.425702423E0
8.369905583E0,-2.058369598E0,6.835535431E0,5.078938293E-1,7.156772050E0
8.379909583E0,-1.009051666E0,6.807393951E0,6.629713440E-1,6.913633537E0
8.389914583E0,2.594105530E-1,6.722969513E0,1.186283112E0,6.831755304E0
8.399919583E0,1.788331146E0,5.947581940E0,1.930385742E0,6.503710351E0
8.409923583E0,2.576741638E0,5.654641113E0,2.755919037E0,6.797768261E0
8.419928583E0,2.245480499E0,6.390061798E0,4.419110413E0,8.087249798E0
8.429933583E0,1.687740326E0,6.999743958E0,5.931714935E0,9.328993780E0
8.439937583E0,1.284478912E0,7.025191040E0,5.282365265E0,8.882937466E0
8.449942583E0,1.243015137E0,6.700216827E0,2.402503967E0,7.225649969E0
8.459947583E0,5.890251160E-1,6.164181519E0,-8.833131409E-1,6.254944163E0
8.469952583E0,-3.598516846E-1,5.835465088E0,-5.147795105E-1,5.869168934E0
8.479956583E0,-8.904981995E-1,5.891298981E0,2.859803009E0,6.608998712E0
8.489961583E0,-2.021246796E0,5.377118225E0,3.542682953E0,6.749032636E0
8.499966583E0,-2.326911163E0,5.014572144E0,2.277513885E0,5.978922883E0
8.509970583E0,-1.263073425E0,5.419031067E0,-3.855981445E-1,5.577628359E0
8.519975583E0,-1.730401611E-1,6.931785278E0,-3.763174438E-1,6.944148966E0
8.529980583E0,1.050665131E0,9.543853455E0,1.526525574E0,9.722104520E0
8.539984583E0,2.010618896E0,1.230800537E1,1.554517365E0,1.256766123E1
8.549989583E0,2.649041290E0,1.569531143E1,1.146016846E0,1.595849540E1
8.559994583E0,3.491639099E0,1.924577820E1,-1.191522217E-1,1.956030980E1
8.569999583E0,3.991300049E0,2.177881073E1,1.829196167E-1,2.214227930E1
8.580003583E0,4.397405548E0,2.344424744E1,3.908222809E0,2.417114228E1
8.590008583E0,3.591930542E0,2.124906235E1,2.124681702E0,2.165499684E1
8.600013583E0,1.528920593E0,1.519609955E1,2.382745056E0,1.545757140E1
8.610017583E0,2.270777893E-1,1.140792709E1,5.282065887E0,1.257348738E1
8.620022583E0,-1.676813049E0,9.631720734E0,2.706222382E0,1.014422919E1
8.630027583E0,-3.127895508E0,8.194709015E0,3.710334320E0,9.523842025E0
8.640032583E0,-3.631747742E0,8.017327881E0,4.888983307E0,1.006823201E1
8.650036583E0,-3.994443512E0,9.130562897E0,5.197192383E0,1.123982057E1
8.660041583E0,-4.164340210E0,1.141795624E1,5.854475555E0,1.349023121E1
8.670046583E0,-4.525838470E0,1.480556168E1,5.804778900E0,1.653430762E1
8.680050583E0,-4.348008270E0,1.903920776E1,6.261179810E0,2.050850996E1
8.690055583E0,-2.148033142E0,2.327929047E1,7.489974518E0,2.454870932E1
8.700060583E0,1.239721985E0,2.623938492E1,7.099586334E0,2.721114400E1
8.710064583E0,3.332220612E0,2.750200928E1,6.219117279E0,2.839263334E1
8.720069583E0,3.511248322E0,2.787877579E1,5.727539520E0,2.867681491E1
8.730074583E0,3.096011810E0,2.930770432E1,5.160219269E0,2.991913575E1
8.740078583E0,2.217339020E0,3.120560760E1,4.219126282E0,3.156750806E1
8.750083583E0,1.233884125E0,3.270833267E1,3.207679596E0,3.288839772E1
8.760088583E0,-1.580712891E-1,3.216002289E1,1.858385468E0,3.221405990E1
8.770093583E0,-1.480421448E0,2.935725128E1,6.450086975E-1,2.940163068E1
8.780097583E0,-2.052232361E0,2.625839539E1,-3.544628906E-1,2.634085477E1
8.790102583E0,-2.479593658E0,2.385708893E1,-1.029858398E0,2.400770054E1
8.800107583E0,-2.619702301E0,2.176743439E1,-9.750723267E-1,2.194617976E1
8.810111583E0,-2.563868408E0,2.027249313E1,-4.772076416E-1,2.043954809E1
8.820116583E0,-2.527194672E0,1.870076157E1,4.487667847E-1,1.887608507E1
8.830121583E0,-2.155218201E0,1.518262756E1,2.482437744E0,1.553446627E1
8.840125583E0,-4.510121155E-1,1.086455704E1,5.830824738E0,1.233857888E1
8.850130583E0,1.943857727E0,7.503147125E0,7.757917328E0,1.096636133E1
8.860135583E0,3.301534424E0,5.574857025E0,4.016747131E0,7.623215720E0
8.870140583E0,3.421135712E0,3.829636230E0,2.099683685E0,5.547878405E0
8.880141833E0,5.146597595E0,-1.831740875E0,1.680929489E1,1.767470328E1
8.890146833E0,5.038222961E0,-3.551514587E0,1.621443192E1,1.734660626E1
8.900151833E0,2.712359619E0,-2.394420776E0,4.284540253E0,5.607800882E0
8.910155833E0,1.200204163E0,-2.758164368E0,-5.911207581E-1,3.065515366E0
8.920160833E0,3.757186890E-2,-2.768941956E0,-2.780168610E0,3.924001618E0
8.930165833E0,-3.620970154E-1,-2.209255829E0,-3.022514648E0,3.761318966E0
8.940170833E0,-1.386117554E-1,-1.569037170E0,-2.478695526E0,2.936838840E0
8.950174833E0,7.289840698E-2,-1.487606506E0,-2.293680267E0,2.734822931E0
8.960179833E0,1.736389160E-1,-1.551822968E0,-2.212548981E0,2.708076437E0
8.970184833E0,1.944456482E-1,-1.588047638E0,-1.978435822E0,2.544388475E0
8.980188833E0,1.704954529E-1,-1.684447174E0,-1.860780487E0,2.515737467E0
8.990193833E0,7.918533325E-2,-1.898352356E0,-1.734443207E0,2.572606698E0
9.000198833E0,-4.790039063E-2,-2.042352905E0,-1.706002350E0,2.661567932E0
9.010202833E0,-1.983375549E-1,-2.090103607E0,-1.712139587E0,2.709112925E0
9.020207833E0,-4.119433594E-1,-2.161954193E0,-1.761536865E0,2.818999005E0
9.030212833E0,-7.494914246E-1,-2.290686493E0,-1.994302826E0,3.128294386E0
9.040216833E0,-1.167122955E0,-2.215991821E0,-2.291285248E0,3.394522622E0
9.050221833E0,-1.434616699E0,-2.040257263E0,-2.396965485E0,3.459222211E0
9.060226833E0,-1.604363708E0,-1.852547607E0,-2.453547821E0,3.467825321E0
9.070231833E0,-1.620081024E0,-1.276695099E0,-2.489323425E0,3.232853850E0
9.080235833E0,-1.585502930E0,-9.476792908E-1,-2.622247009E0,3.207506034E0
9.090240833E0,-1.673070831E0,-5.273533630E-1,-2.636467438E0,3.166737774E0
9.100245833E0,-1.891466675E0,-1.112187195E-1,-2.577041016E0,3.198617855E0
9.110249833E0,-2.127525787E0,1.453477478E-1,-2.480641479E0,3.271249623E0
9.120254833E0,-2.255060577E0,3.505709839E-1,-2.375709686E0,3.294266950E0
9.130259833E0,-2.333048401E0,3.706292725E-1,-2.074685669E0,3.144010420E0
9.140263833E0,-2.379152527E0,2.163002014E-1,-1.707349548E0,2.936357438E0
9.150268833E0,-2.357447662E0,-1.172062683E-1,-1.358425140E0,2.723346407E0
9.160273833E0,-2.284549255E0,-2.523751831E-1,-1.085243225E0,2.541773277E0
9.170278833E0,-2.170486450E0,-4.510121155E-1,-8.195457458E-1,2.363488648E0
9.180282833E0,-2.128872986E0,-7.246430969E-1,-6.589297485E-1,2.343372830E0
9.190287833E0,-2.076481934E0,-9.541159058E-1,-5.996530151E-1,2.362561771E0
9.200292833E0,-1.983225861E0,-1.133592682E0,-6.506968689E-1,2.375210222E0
9.210296833E0,-1.853445740E0,-1.234782257E0,-6.978488159E-1,2.333868313E0
9.220301833E0,-1.664239197E0,-1.268312531E0,-6.358776855E-1,2.186926887E0
9.230306833E0,-1.435963898E0,-1.206042023E0,-4.986131287E-1,1.940398085E0
9.240310833E0,-1.235381012E0,-1.127455444E0,-3.646417236E-1,1.711807702E0
9.250315833E0,-1.052311707E0,-1.059646454E0,-2.359094238E-1,1.511907336E0
9.260320833E0,-8.635542297E-1,-9.836045837E-1,-1.122665405E-1,1.313699989E0
9.270325833E0,-6.530918884E-1,-8.547225952E-1,2.544708252E-3,1.075679416E0
9.280329833E0,-4.529580688E-1,-7.363188171E-1,7.619155884E-2,8.678372925E-1
9.290334833E0,-3.197351074E-1,-6.755451965E-1,6.286926270E-2,7.500295965E-1
9.300339833E0,-2.227368164E-1,-4.093986511E-1,-1.182540894E-2,4.662175299E-1
9.310343833E0,-1.246907043E-1,4.537065125E-1,-2.924917603E-1,5.540296030E-1
9.320348833E0,-7.203021240E-1,7.753276978E0,-1.755998383E0,7.982209554E0
9.330353833E0,-6.040987701E0,7.096592560E0,1.362167358E0,9.418633568E0
9.340357833E0,-6.175857239E0,9.615554352E0,1.994677048E1,2.298855695E1
9.350362833E0,-8.990154877E0,3.619907364E1,6.997049561E1,7.929102139E1
9.360367833E0,-1.745011230E1,4.582241180E1,2.491928009E1,5.500154873E1
9.370372833E0,-1.961730560E1,4.273403412E1,-1.824286377E1,5.043647916E1
9.380376833E0,-1.630888550E1,4.904386276E1,-2.025767395E1,5.551264338E1
9.390381833E0,-8.524772644E0,5.212939636E1,-1.831875595E1,5.590816160E1
9.400386833E0,-4.839735718E0,5.615467575E1,-1.226803848E1,5.768253998E1
9.410390833E0,2.341131592E0,5.344815399E1,2.645149384E1,5.968138393E1
9.420395833E0,-8.081694031E-1,3.676025665E1,1.428569275E1,3.944680753E1
9.430400833E0,-3.131637726E0,2.503034912E1,-5.794001312E0,2.588234887E1
9.440404833E0,-1.562151489E0,1.985501129E1,1.547077835E1,2.521917472E1
9.450409833E0,-4.162843323E0,1.834450241E1,8.169112244E0,2.050815516E1
9.460414833E0,-6.408772888E0,1.838656494E1,-1.613345032E0,1.953819394E1
9.470419833E0,-6.924899597E0,1.649449951E1,8.259823608E-1,1.790823820E1
9.480423833E0,-8.681796112E0,1.563304092E1,3.467239838E0,1.821502963E1
9.490428833E0,-1.026056305E1,1.745400421E1,3.632196808E0,2.056974163E1
9.500433833E0,-9.474547577E0,1.838925934E1,3.121758270E0,2.092073817E1
9.510437833E0,-7.778424683E0,1.771670792E1,2.352358246E0,1.949151660E1
9.520442833E0,-6.211632843E0,1.590248062E1,1.469194794E0,1.713568808E1
9.530447833E0,-4.814138947E0,1.311033691E1,1.105750580E0,1.400998045E1
9.540451833E0,-3.936963043E0,1.040231827E1,1.542691956E0,1.122888248E1
9.550456833E0,-3.013084259E0,7.963739319E0,2.246528320E0,8.806060991E0
9.560461833E0,-2.231260071E0,5.655988312E0,2.953208771E0,6.759450224E0
9.570465833E0,-1.600471802E0,3.864364014E0,3.732039185E0,5.605616442E0
9.580470833E0,-9.345066833E-1,2.241438904E0,4.060755615E0,4.731499473E0
9.590475833E0,-2.092648315E-1,1.051413574E0,3.547023926E0,3.705487958E0
9.600480833E0,3.670367432E-1,4.014651489E-1,2.751727753E0,2.804976981E0
9.610484833E0,8.119116211E-1,-2.109114075E-1,2.205214233E0,2.359375747E0
9.620489833E0,1.233584747E0,-7.969427490E-1,1.441502380E0,2.057857669E0
9.630494833E0,1.534159698E0,-1.075812836E0,2.588117981E-1,1.891560939E0
9.640498833E0,1.628164215E0,-1.081950073E0,-1.144519958E0,2.265272745E0
9.650503833E0,1.483714600E0,-1.025517426E0,-2.288441162E0,2.913770402E0
9.660508833E0,1.441801758E0,-8.605604553E-1,-2.506537628E0,3.016966604E0
9.670512833E0,1.442999268E0,-6.164181519E-1,-2.086511078E0,2.610698509E0
9.680517833E0,1.367705841E0,-6.773414612E-1,-1.453327789E0,2.107503828E0
9.690522833E0,1.397942963E0,-6.965016174E-1,-1.153052216E0,1.941362522E0
9.700527833E0,1.460213470E0,-7.179071045E-1,-1.055604858E0,1.939565830E0
9.710531833E0,1.469643860E0,-8.533753967E-1,-9.273216248E-1,1.935982448E0
9.720536833E0,1.385818176E0,-1.007405090E0,-7.541317749E-1,1.871916603E0
9.730541833E0,1.324745178E0,-1.115180969E0,-5.882766724E-1,1.828837834E0
9.740545833E0,1.271306305E0,-1.231339417E0,-4.649331665E-1,1.829912383E0
9.750550833E0,1.055455170E0,-1.304986267E0,-3.391946411E-1,1.712316494E0
9.760555833E0,7.801776123E-1,-1.301543427E0,-1.498384094E-1,1.524842269E0
9.770559833E0,5.520520020E-1,-1.292113037E0,-6.242019653E-2,1.406489884E0
9.780564833E0,2.339634705E-1,-1.217867432E0,-9.325607300E-2,1.243638485E0
9.790569833E0,-1.124162292E-1,-7.529342651E-1,-1.770817566E-1,7.816043531E-1
9.800573833E0,-2.674937439E-1,1.939965820E-1,-1.764830017E-1,3.746115678E-1
9.810578833E0,-2.472857666E-1,5.764512634E-1,-3.004252625E-1,6.954866266E-1
9.820583833E0,-2.260299683E-1,8.228388977E-1,-4.957690430E-1,9.868841584E-1
9.830588833E0,-2.359094238E-1,1.184636536E0,-7.433541870E-1,1.418306182E0
9.840592833E0,-3.236270142E-1,1.818867645E0,-1.340163116E0,2.282334580E0
9.850597833E0,-1.576671295E0,5.243745575E0,-1.850601654E0,5.779920978E0
9.860602833E0,-8.263715515E0,2.025018951E1,-1.100810852E0,2.189910852E1
9.870606833E0,-1.534953049E1,3.031840256E1,-2.017205200E0,3.404236679E1
9.880611208E0,-1.712438965E1,3.325005615E1,-3.257376251E0,3.754226225E1
9.890616208E0,-1.935056030E1,3.660817291E1,-3.492686920E0,4.155479960E1
9.900620208E0,-2.031305878E1,3.866714127E1,-2.359243927E0,4.374167581E1
9.910625208E0,-1.924967010E1,4.133758804E1,-1.170565796E0,4.561486829E1
9.920630208E0,-1.120180573E1,3.593861526E1,4.564308472E0,3.791961802E1
9.930635208E0,-1.812730408E-1,2.163002014E1,4.048885300E1,4.590466042E1
9.940639208E0,-4.023932190E0,1.084270248E1,3.691668137E1,3.868588361E1
9.950644208E0,-6.668033752E0,7.616311798E0,9.810598755E0,1.409676301E1
9.960649208E0,-7.132368164E0,8.216563568E0,8.461903381E-1,1.091323190E1
9.970653208E0,-7.093149719E0,8.304580536E0,-5.789959717E-1,1.093682162E1
9.980658208E0,-6.252048798E0,7.163204041E0,-1.108444977E0,9.572264965E0
9.990663208E0,-5.067861328E0,5.425467682E0,-1.926643524E0,7.670128635E0
1.000066721E1,-4.090543671E0,3.782484283E0,-2.540666656E0,6.123293390E0
1.001067221E1,-3.360212402E0,2.530487823E0,-3.050506439E0,5.196151032E0
1.002067721E1,-2.715802460E0,1.712139587E0,-3.360511780E0,4.647584791E0
1.003068221E1,-2.624043274E0,2.298170929E0,-3.975283356E0,5.288673792E0
1.004068621E1,-2.304757233E0,2.656675415E0,-3.995191956E0,5.322723826E0
1.005069121E1,-1.596130829E0,2.888094177E0,-3.629951477E0,4.905636485E0
1.006069621E1,-1.194515991E0,3.666625214E0,-3.288511505E0,5.068068353E0
1.007070021E1,-8.979826355E-1,4.606221313E0,-2.728076935E0,5.428264121E0
1.008070521E1,-8.307723999E-1,5.708529053E0,-2.047142944E0,6.121133960E0
1.009071021E1,-9.843530273E-1,6.944658508E0,-1.482666779E0,7.169067823E0
1.010071421E1,-1.489851837E0,8.201145630E0,-1.091829529E0,8.406577179E0
1.011071921E1,-2.148781586E0,9.456285553E0,-8.446934509E-1,9.734069333E0
1.012072421E1,-2.586770782E0,1.079300583E1,-6.361770630E-1,1.111688262E1
1.013072821E1,-2.190095673E0,1.315524353E1,1.411414948E0,1.341078087E1
1.014073321E1,5.583389282E-2,1.694326630E1,1.116019226E1,2.028859979E1
1.015073821E1,2.558180237E-1,1.611683487E1,1.829615295E1,2.438374504E1
1.016074321E1,-2.476599884E0,1.070573730E1,1.264764908E1,1.675438407E1
1.017074721E1,-4.073030090E0,7.586972809E0,6.761289825E0,1.094836840E1
1.018075221E1,-5.287903748E0,5.607189789E0,3.191363525E0,8.341900534E0
1.019075721E1,-6.271358643E0,4.210444336E0,9.818083191E-1,7.617199505E0
1.020076121E1,-6.860234070E0,3.293900299E0,-2.754272461E-2,7.610082081E0
1.021076621E1,-6.708300018E0,2.895728302E0,-2.511776733E-1,7.310924822E0
1.022077121E1,-5.425168304E0,2.807112579E0,-3.588038635E-1,6.118911045E0
1.023077521E1,-3.706592102E0,2.989583130E0,-6.435118103E-1,4.805261674E0
1.024078021E1,-2.664309540E0,3.099005585E0,-7.150630188E-1,4.148939149E0
1.025078521E1,-3.182980957E0,2.902314606E0,-5.276527405E-1,4.339725251E0
1.026078921E1,-3.654799805E0,3.021466827E0,-1.716929626E-1,4.745134548E0
1.027079421E1,-4.207151184E0,4.510121155E0,1.019380188E0,6.251435826E0
1.028079921E1,-5.403313751E0,7.326215057E0,2.767295380E0,9.514575675E0
1.029080421E1,-3.453318787E0,1.124521545E1,4.452191620E0,1.257784924E1
1.030080821E1,-2.791694641E-1,1.523726395E1,7.444169769E0,1.696077273E1
1.031081321E1,2.493814087E0,1.754681122E1,7.831564178E0,1.937635389E1
1.032081821E1,3.629801788E0,1.751343063E1,2.593955841E0,1.807275077E1
1.033082221E1,3.052602081E0,1.700059708E1,3.597019958E-1,1.727622835E1
1.034082721E1,1.838925934E0,1.619542145E1,3.508553925E0,1.667283045E1
1.035083221E1,1.016685791E0,1.395802414E1,4.664300537E0,1.475180624E1
1.036083621E1,6.032455444E-1,1.059257263E1,2.834954681E0,1.098196104E1
1.037084121E1,5.493576050E-1,7.847281494E0,1.343456268E0,7.980381906E0
1.038084621E1,9.943821716E-1,6.498436432E0,7.237449646E-1,6.613794579E0
1.039085021E1,9.870474243E-1,6.122717743E0,1.341660004E0,6.345233388E0
1.040085521E1,-2.106120300E-1,5.608387299E0,1.323847046E0,5.766362503E0
1.041086021E1,-1.198557587E0,5.262756042E0,4.924758911E-1,5.419933021E0
1.042086521E1,-1.313518524E0,6.494544525E0,3.891906738E-3,6.626043665E0
1.043086921E1,-1.116977234E0,9.315578156E0,5.415737915E-1,9.397921934E0
1.044087421E1,-4.592449951E-1,1.273342072E1,1.529968414E0,1.283322689E1
1.045087921E1,4.177812195E-1,1.589065521E1,1.371597748E0,1.595521058E1
1.046088321E1,1.114133148E0,1.848296448E1,8.217910767E-1,1.853474060E1
1.047088821E1,1.391057281E0,2.041649368E1,3.035687256E0,2.068776575E1
1.048089321E1,9.325607300E-1,1.996952316E1,4.685406647E0,2.053301148E1
1.049089721E1,-2.401007080E-1,1.552361847E1,3.718267822E0,1.596451986E1
1.050090221E1,-1.579066315E0,1.098565521E1,3.510050812E0,1.164038348E1
1.051090721E1,-3.270548859E0,8.314459991E0,3.412154388E0,9.563970533E0
1.052091221E1,-4.658163300E0,6.837032318E0,2.536325684E0,8.653117601E0
1.053091621E1,-5.636079712E0,6.115682373E0,3.111280060E0,8.879584958E0
1.054092121E1,-6.587950287E0,6.161337433E0,5.279670868E0,1.045170285E1
1.055092621E1,-6.995552673E0,7.451205139E0,6.498885498E0,1.211171862E1
1.056093021E1,-5.851182404E0,9.947713623E0,7.053182831E0,1.352555839E1
1.057093521E1,-4.418511658E0,1.266531235E1,5.863905945E0,1.463963029E1
1.058094021E1,-3.622616730E0,1.567480408E1,4.991071014E0,1.684439446E1
1.059094421E1,-2.546803894E0,2.043475571E1,6.719077606E0,2.166128931E1
1.060094921E1,-1.766925659E0,2.582953720E1,8.368497620E0,2.720879951E1
1.061095421E1,-1.995949402E0,2.924827789E1,7.810009003E0,3.033878400E1
1.062095821E1,-2.562820587E0,3.067900269E1,6.607709198E0,3.148699852E1
1.063096321E1,-3.035537567E0,3.259441956E1,6.938820648E0,3.346278390E1
1.064096821E1,-3.678450623E0,3.375061523E1,6.082301788E0,3.449100495E1
1.065097321E1,-4.844226379E0,3.193668732E1,3.712729340E0,3.251465647E1
1.066097721E1,-6.051765289E0,2.828113907E1,1.526375885E0,2.896163865E1
1.067098221E1,-6.235133972E0,2.571068436E1,7.963439941E-2,2.645604898E1
1.068098721E1,-6.339616699E0,2.383343811E1,-7.475454712E-1,2.467351487E1
1.069099121E1,-6.460714874E0,2.257275970E1,-1.501677246E0,2.352711950E1
1.070099621E1,-6.531966705E0,2.131088379E1,-1.477727051E0,2.233839820E1
1.071100121E1,-7.069648590E0,1.940429855E1,-4.806504822E-1,2.065763197E1
1.072100521E1,-6.970105591E0,1.624706406E1,1.750609589E0,1.776553113E1
1.073101021E1,-4.871769104E0,1.159174484E1,4.572990417E0,1.337964589E1
1.074101521E1,-2.294728088E0,6.077212372E0,9.548793182E0,1.154892802E1
1.075102021E1,-4.960684204E-1,3.877536621E0,1.058269318E1,1.128161199E1
1.076102421E1,2.424957275E-2,4.042194214E0,6.588399353E0,7.729613712E0
1.077102921E1,5.849835205E-1,-1.358125763E0,1.612596588E1,1.619362488E1
1.078103421E1,1.462758179E0,-4.461172943E0,1.488444763E1,1.560732222E1
1.079103821E1,1.798210602E0,-2.014660492E0,1.890418854E0,3.296377058E0
1.080104321E1,1.566193085E0,-7.993377686E-1,-1.598525848E0,2.376380974E0
1.081104821E1,6.304888916E-1,-8.167016602E-1,-2.408940582E0,2.620593935E0
1.082105221E1,4.315525818E-1,-7.041357422E-1,-2.794838104E0,2.914303485E0
1.083105721E1,4.085005188E-1,-8.581654358E-1,-2.663860474E0,2.828333999E0
1.084106221E1,3.083587646E-1,-1.163231049E0,-2.479593658E0,2.756188729E0
1.085106621E1,2.954855347E-1,-1.130748596E0,-2.169738007E0,2.464481103E0
1.086107121E1,3.098556519E-1,-1.123264160E0,-1.825753326E0,2.165896606E0
1.087107621E1,3.098556519E-1,-1.224004669E0,-1.759590912E0,2.165723466E0
1.088108071E1,3.118016052E-1,-1.294358368E0,-1.758094025E0,2.205329550E0
1.089108471E1,2.805166626E-1,-1.336271210E0,-1.817670135E0,2.273375258E0
1.090108971E1,2.559677124E-1,-1.372944946E0,-2.062261505E0,2.490666539E0
1.091109471E1,2.195933533E-1,-1.366059265E0,-2.237996063E0,2.631152891E0
1.092109871E1,1.496887207E-1,-1.329535217E0,-2.373464355E0,2.724592383E0
1.093110371E1,-5.852828979E-2,-1.310524750E0,-2.447709961E0,2.777082054E0
1.094110871E1,-3.218307495E-1,-1.411265259E0,-2.451751556E0,2.847161807E0
1.095111271E1,-5.415737915E-1,-1.466500397E0,-2.341730347E0,2.815604127E0
1.096111771E1,-7.209008789E-1,-1.503623199E0,-2.152224426E0,2.722618369E0
1.097112271E1,-8.418493652E-1,-1.182091827E0,-1.769470367E0,2.288466042E0
1.098112671E1,-7.200027466E-1,-6.150709534E-1,-1.389111328E0,1.681174148E0
1.099113171E1,-6.795867920E-1,-1.869612122E-1,-1.105600891E0,1.311162093E0
1.100113671E1,-6.822811890E-1,1.736389160E-2,-9.027726746E-1,1.131727718E0
1.101114071E1,-7.641609192E-1,8.816665649E-2,-8.246351624E-1,1.127713803E0
1.102114571E1,-8.412506104E-1,1.622625732E-1,-7.861651611E-1,1.162792928E0
1.103115071E1,-8.985813904E-1,1.568737793E-1,-7.509883118E-1,1.181541934E0
1.104115571E1,-1.020727386E0,2.185455322E-2,-7.854167175E-1,1.288115460E0
1.105115971E1,-1.100960541E0,-1.260379028E-1,-7.653584290E-1,1.346763970E0
1.106116471E1,-1.173559570E0,-3.656895447E-1,-6.718029785E-1,1.400817672E0
1.107116971E1,-1.257534943E0,-6.021977234E-1,-5.578898621E-1,1.501758079E0
1.108117371E1,-1.318308563E0,-8.482859802E-1,-4.941224670E-1,1.643679891E0
1.109117871E1,-1.312470703E0,-1.058748322E0,-4.472698975E-1,1.744585256E0
1.110118371E1,-1.310674438E0,-1.235081635E0,-3.893403625E-1,1.842520026E0
1.111118771E1,-1.284778290E0,-1.363813934E0,-3.466790771E-1,1.905473716E0
1.112119271E1,-1.252894592E0,-1.491947479E0,-3.309617615E-1,1.976154809E0
1.113119771E1,-1.216969299E0,-1.472338257E0,-3.505709839E-1,1.942085022E0
1.114120171E1,-1.083297272E0,-1.318458252E0,-3.594026184E-1,1.743856469E0
1.115120671E1,-9.039701843E-1,-1.059047699E0,-3.005749512E-1,1.424461100E0
1.116121171E1,-7.185058594E-1,-8.635542297E-1,-2.727328491E-1,1.156010287E0
1.117121671E1,-5.578898621E-1,-6.500981140E-1,-2.980302429E-1,9.070229775E-1
1.118122071E1,-4.381388855E-1,-4.249662781E-1,-3.499722290E-1,7.035926247E-1
1.119122571E1,-3.629951477E-1,-6.900650024E-2,-5.110372925E-1,6.306238884E-1
1.120123071E1,-3.511697388E-1,6.363267517E-1,-1.998494110E0,2.126548995E0
1.121123471E1,-5.643264771E-1,1.852697296E0,-3.548670502E0,4.042773055E0
1.122123971E1,-1.512903900E0,3.386258240E0,-3.597768402E0,5.167161750E0
1.123124471E1,-2.279759216E0,3.359014893E0,-1.379680939E0,4.287633686E0
1.124124871E1,-5.848787384E0,1.393482239E1,5.771697693E0,1.617714694E1
1.125125371E1,-2.172806625E1,4.870900909E1,5.914979736E1,7.964530719E1
1.126125871E1,-2.345248032E1,5.077022278E1,3.101415573E1,6.394929405E1
1.127126271E1,-2.384631134E1,4.663971222E1,-4.330045624E0,5.256099900E1
1.128126771E1,-2.493245270E1,4.533053467E1,-1.574860062E1,5.407867410E1
1.129127271E1,-1.973511063E1,5.307917130E1,-1.298130524E1,5.809808347E1
1.130127671E1,-1.146540756E1,5.627173233E1,-1.726958771E0,5.745385815E1
1.131128171E1,-4.932692413E0,4.463897278E1,1.112082413E1,4.626707333E1
1.132128671E1,-6.409072266E0,2.990466293E1,3.032094727E0,3.073367324E1
1.133129171E1,-6.241720276E0,2.317840027E1,8.472381592E-2,2.400425981E1
1.134129571E1,-4.974455566E0,1.850571716E1,1.886526947E0,1.925527875E1
1.135130071E1,-4.047133942E0,1.631756744E1,1.194066925E0,1.685431981E1
1.136130571E1,-3.900738373E0,1.587194412E1,-5.644761658E-1,1.635399044E1
1.137130971E1,-3.754642181E0,1.567390594E1,-1.477876740E0,1.618495552E1
1.138131471E1,-3.676504669E0,1.542527298E1,-1.363215179E0,1.591584395E1
1.139131971E1,-3.409010925E0,1.489088425E1,-4.785548401E-1,1.528361227E1
1.140132371E1,-2.840343475E0,1.376642258E1,5.234614563E-1,1.406612788E1
1.141132871E1,-2.100581818E0,1.217223770E1,1.419797516E0,1.243348863E1
1.142133371E1,-1.420396271E0,1.045740372E1,2.351759491E0,1.081228888E1
1.143133771E1,-9.276210022E-1,8.821306000E0,2.943179626E0,9.345492313E0
1.144134271E1,-7.655081177E-1,7.515271912E0,3.187920685E0,8.199277583E0
1.145134771E1,-6.469546509E-1,6.017336884E0,3.281326447E0,6.884329796E0
1.146135271E1,-5.536985779E-1,4.382736053E0,3.566782837E0,5.677754594E0
1.147135671E1,-4.534071350E-1,2.770139465E0,3.952231293E0,4.847616206E0
1.148136171E1,-2.561174011E-1,1.381327515E0,4.215982819E0,4.443891645E0
1.149136671E1,1.202000427E-1,1.752854919E-1,4.537364502E0,4.542339670E0
1.150137071E1,4.888833618E-1,-4.791535950E-1,4.207450562E0,4.262773198E0
1.151137571E1,8.135581970E-1,-6.041436768E-1,2.745740204E0,2.926765414E0
1.152138071E1,1.048270111E0,-7.246430969E-1,8.958869934E-1,1.557752018E0
1.153138471E1,9.216334534E-1,-1.046773224E0,-6.950047302E-1,1.558259920E0
1.154138971E1,9.135502625E-1,-8.467890930E-1,-1.786085815E0,2.177551007E0
1.155139471E1,7.450007629E-1,-8.307723999E-1,-1.886526947E0,2.191846901E0
1.156139871E1,6.701564026E-1,-8.827143860E-1,-1.512155457E0,1.874808901E0
1.157140371E1,6.629713440E-1,-8.217910767E-1,-1.102008362E0,1.526202479E0
1.158140871E1,6.357279968E-1,-7.574249268E-1,-7.168592834E-1,1.221363925E0
1.159141271E1,6.807843018E-1,-7.307803345E-1,-5.095404053E-1,1.121221917E0
1.160141771E1,7.631130981E-1,-7.506889343E-1,-4.173321533E-1,1.148930634E0
1.161142271E1,8.312214661E-1,-7.634124756E-1,-5.155279541E-1,1.240764605E0
1.162142671E1,8.611592102E-1,-8.249345398E-1,-6.321354675E-1,1.349706423E0
1.163143171E1,5.932164001E-1,-8.196954346E-1,-7.705975342E-1,1.271859608E0
1.164143671E1,-1.766326904E-2,1.354682922E-1,-7.810757446E-1,7.929331423E-1
1.165144171E1,-1.131646729E-1,9.845027161E-1,-1.004561005E0,1.411096968E0
1.166144571E1,-1.951940918E-1,1.514251099E0,-1.629062347E0,2.232689243E0
1.167145071E1,-6.051914978E-1,2.925666046E0,-2.153871002E0,3.683061072E0
1.168145571E1,-3.977528687E0,1.110106522E1,-1.063089294E0,1.183995533E1
1.169145971E1,-1.073417816E1,2.156430679E1,2.095642090E-3,2.408821107E1
1.170146471E1,-1.388482635E1,2.509875687E1,-7.342231750E-1,2.869277057E1
1.171146971E1,-1.393482239E1,2.774555283E1,-1.891616364E0,3.110583850E1
1.172147371E1,-1.559487030E1,3.135978699E1,-3.416495361E0,3.518961012E1
1.173147871E1,-1.768512360E1,3.465982452E1,-3.902235260E0,3.910619481E1
1.174148371E1,-1.765713181E1,3.370076889E1,-1.942211151E0,3.809577813E1
1.175148771E1,-1.572674606E1,2.273666885E1,4.088747406E0,2.794645787E1
1.176149271E1,-1.346929047E1,8.861721954E0,1.819915466E1,2.431380538E1
1.177149771E1,-1.184456909E1,3.855532379E0,2.135070099E1,2.471864437E1
1.178150171E1,-9.036259003E0,3.741469574E0,9.869127045E0,1.389432402E1
1.179150671E1,-5.991590424E0,4.328249359E0,2.610571289E0,7.838876244E0
1.180151171E1,-4.127816162E0,4.750072174E0,8.723858643E-1,6.353196756E0
1.181151671E1,-3.010090485E0,4.147425385E0,6.721023560E-2,5.125065781E0
1.182152071E1,-2.212249603E0,3.812721405E0,-7.559280396E-1,4.472395334E0
1.183152571E1,-1.362167358E0,3.218008118E0,-1.754800873E0,3.910294396E0
1.184153071E1,-5.153782654E-1,2.714006195E0,-2.317929840E0,3.606139643E0
1.185153471E1,-3.023712158E-2,2.845133514E0,-2.776426392E0,3.975455006E0
1.186153971E1,-1.782792664E-1,3.621718597E0,-3.101250916E0,4.771413453E0
1.187154471E1,-8.759783936E-1,5.453758850E0,-2.961890717E0,6.267664665E0
1.188154858E1,-1.646126862E0,7.588769073E0,-2.276466064E0,8.092060766E0
1.189155358E1,-2.197580109E0,9.396559753E0,-1.751956787E0,9.807856347E0
1.190155858E1,-2.893333282E0,1.104238724E1,-1.498833160E0,1.151313138E1
1.191156258E1,-3.816014557E0,1.259016861E1,-1.477876740E0,1.323852078E1
1.192156758E1,-4.796924744E0,1.364472565E1,-9.074130249E-1,1.449180539E1
1.193157258E1,-5.788313141E0,1.289134232E1,2.437830505E0,1.433995444E1
1.194157658E1,-7.150181122E0,1.069271439E1,9.519603882E0,1.600256508E1
1.195158158E1,-8.134983215E0,8.701704712E0,1.188109314E1,1.682432736E1
1.196158658E1,-6.938371582E0,7.673343201E0,6.831793213E0,1.239736240E1
1.197159158E1,-5.291047211E0,7.187303925E0,2.286345520E0,9.213028499E0
1.198159558E1,-4.878205719E0,6.960974579E0,1.495390320E-1,8.501436352E0
1.199160058E1,-5.074148254E0,7.094047852E0,-1.610500946E0,8.869397315E0
1.200160558E1,-5.380411377E0,7.214547272E0,-2.215991821E0,9.268718286E0
1.201160958E1,-5.428461456E0,7.633675690E0,-1.548679504E0,9.494188039E0
1.202161458E1,-5.194497986E0,8.224048004E0,-7.897576904E-1,9.759174766E0
1.203161958E1,-4.984035645E0,8.644373932E0,-3.174897766E-1,9.983316670E0
1.204162358E1,-4.854704590E0,8.919352112E0,1.796264648E-2,1.015496536E1
1.205162858E1,-4.514013062E0,8.941356354E0,5.700146484E-1,1.003240171E1
1.206163358E1,-3.890409851E0,9.016200714E0,1.159039764E0,9.887898528E0
1.207163758E1,-3.175197144E0,9.122030640E0,1.611698456E0,9.792389484E0
1.208164258E1,-2.580783234E0,9.065897369E0,1.882934418E0,9.612303534E0
1.209164758E1,-2.131118317E0,8.850794678E0,2.063159637E0,9.334605476E0
1.210165158E1,-1.836830292E0,8.638985138E0,2.178270264E0,9.096750578E0
1.211165658E1,-1.713037720E0,8.431366882E0,2.254312134E0,8.894063690E0
1.212166158E1,-1.827998657E0,8.158933411E0,2.055675201E0,8.610201741E0
1.213166558E1,-2.382146301E0,7.620054016E0,1.520388336E0,8.127202772E0
1.214167058E1,-3.287613373E0,6.749464417E0,9.990225220E-1,7.573751884E0
1.215167558E1,-4.084705811E0,6.043083344E0,6.465055847E-1,7.322680338E0
1.216168058E1,-4.629123688E0,5.626349945E0,4.640350342E-1,7.300679991E0
1.217168458E1,-4.845573578E0,5.394781494E0,3.571572876E-1,7.260221208E0
1.218168958E1,-4.647685089E0,5.385949860E0,3.016227722E-1,7.120421959E0
1.219169458E1,-4.169429626E0,5.425467682E0,3.439846802E-1,6.851143586E0
1.220169858E1,-3.428919525E0,5.348976746E0,3.748205566E-1,6.364709874E0
1.221170358E1,-2.498753815E0,5.179828491E0,3.320095825E-1,5.760609706E0
1.222170858E1,-1.374591522E0,4.902305603E0,7.634124756E-2,5.091947571E0
1.223171258E1,-4.469705200E-1,4.574187927E0,-2.312690735E-1,4.601789133E0
1.224171758E1,-2.405497742E-1,4.801415405E0,3.327580261E-1,4.818939924E0
1.225172258E1,-6.918612671E-1,5.584287415E0,2.432292023E0,6.130169853E0
1.226172658E1,-1.610650635E0,6.920259247E0,6.095474396E0,9.361569934E0
1.227173158E1,-2.114502869E0,8.233478394E0,7.137607269E0,1.109985254E1
1.228173658E1,-2.259551239E0,8.926237793E0,4.806205444E0,1.038666952E1
1.229174058E1,-2.500101013E0,8.729247437E0,1.949845276E0,9.287204234E0
1.230174558E1,-1.896855469E0,8.622818756E0,-6.773414612E-1,8.854933959E0
1.231175058E1,-1.460812225E0,8.707392883E0,-1.705553284E0,8.992306444E0
1.232175558E1,-1.835183716E0,8.957373047E0,-6.948550415E-1,9.169801236E0
1.233175958E1,-2.028282166E0,1.021670425E1,1.209933929E0,1.048612962E1
1.234176458E1,-1.839674377E0,1.148486710E1,2.673889618E0,1.193466630E1
1.235176858E1,-2.083217926E0,1.192734695E1,3.203039246E0,1.252441067E1
1.236177358E1,-2.747386780E0,1.196042816E1,1.989363098E0,1.243211734E1
1.237177858E1,-2.098336487E0,1.301244049E1,-6.406677246E-2,1.318069528E1
1.238178358E1,-6.625222778E-1,1.425740158E1,1.166224823E0,1.432035321E1
1.239178758E1,-5.495072937E-1,1.369202728E1,3.858376465E0,1.423589261E1
1.240179258E1,-4.328997803E-1,1.220367233E1,9.060658264E-1,1.224491633E1
1.241179758E1,1.228944397E-1,1.185953796E1,9.789642334E-2,1.186057872E1
1.242180158E1,2.056723022E-1,1.239287888E1,1.979333954E0,1.255163379E1
1.243180658E1,-7.643106079E-1,1.302112244E1,1.843715973E0,1.317319585E1
1.244181158E1,-2.158810730E0,1.397448990E1,2.431842957E0,1.434784624E1
1.245181558E1,-3.382066956E0,1.546658707E1,3.138972473E0,1.614022430E1
1.246182058E1,-4.401297455E0,1.632535126E1,2.339784393E0,1.706936156E1
1.247182558E1,-4.444407806E0,1.609273499E1,1.871857452E0,1.679978364E1
1.248182958E1,-4.760999451E0,1.500629425E1,2.349963226E0,1.591786135E1
1.249183458E1,-5.745502167E0,1.396775391E1,3.207230530E0,1.544005415E1
1.250183958E1,-6.372997284E0,1.339384735E1,4.073928223E0,1.538203928E1
1.251184358E1,-6.012397156E0,1.296992889E1,4.892725525E0,1.510982257E1
1.252184858E1,-5.346282349E0,1.318667816E1,6.125861206E0,1.549184919E1
1.253185358E1,-4.360582123E0,1.506467285E1,6.184539185E0,1.685845691E1
1.254185758E1,-3.487148438E0,1.838791214E1,6.040838013E0,1.966639878E1
1.255186258E1,-3.305276642E0,2.271002426E1,6.355633392E0,2.381310840E1
1.256186758E1,-4.373455353E0,2.635629181E1,5.965544586E0,2.737460414E1
1.257187258E1,-6.016588440E0,2.805989914E1,4.447700958E0,2.904030509E1
1.258187658E1,-7.340285797E0,2.923016556E1,3.847000122E0,3.038226101E1
1.259188158E1,-7.729775848E0,3.019460999E1,3.575165405E0,3.137269058E1
1.260188658E1,-7.948770447E0,2.930246521E1,2.813249817E0,3.049150363E1
1.261189058E1,-7.924520874E0,2.575618973E1,1.139879608E0,2.697181243E1
1.262189558E1,-7.950267334E0,2.353944946E1,1.646575928E-1,2.484631852E1
1.263190058E1,-7.703280945E0,2.242022690E1,5.837860107E-3,2.370668989E1
1.264190458E1,-7.124135284E0,2.179333054E1,1.655557251E-1,2.292880215E1
1.265190958E1,-6.478078766E0,2.157583282E1,3.725752258E-1,2.253044338E1
1.266191458E1,-6.011199646E0,2.059088104E1,6.888674927E-1,2.146144081E1
1.267191858E1,-5.530100098E0,1.841470642E1,1.758094025E0,1.930736425E1
1.268192358E1,-4.730612640E0,1.468042191E1,3.920796661E0,1.591433724E1
1.269192858E1,-3.198698273E0,1.018437149E1,6.377637634E0,1.243492481E1
1.270193258E1,-1.185983734E0,6.437363434E0,8.004754028E0,1.034032361E1
1.271193758E1,5.520520020E-1,3.791016541E0,7.557633820E0,8.473157427E0
1.272194258E1,9.400451660E-1,2.491868134E0,4.553530884E0,5.275200017E0
1.273194758E1,1.282383270E0,8.544232178E-1,3.838617554E0,4.136366837E0
1.274195158E1,3.494932251E0,-3.496728516E0,9.763147430E0,1.094352363E1
1.275195658E1,4.522245941E0,-4.547693024E0,7.930658112E0,1.019939009E1
1.276196158E1,3.339106293E0,-2.417023773E0,1.508113861E0,4.389309988E0
1.277196558E1,1.939217377E0,-1.839225311E0,-1.512155457E0,3.070818768E0
1.278197058E1,1.165476379E0,-1.529519348E0,-2.473456421E0,3.133009941E0
1.279197558E1,1.032852173E0,-1.273102570E0,-2.405198364E0,2.910765009E0
1.280197958E1,1.027463379E0,-1.244362335E0,-1.984872437E0,2.558092494E0
1.281198458E1,1.034648438E0,-1.279838562E0,-1.809586945E0,2.446035373E0
1.282198958E1,9.985734558E-1,-1.357077942E0,-1.665436707E0,2.369069208E0
1.283199358E1,8.884025574E-1,-1.508562927E0,-1.541045380E0,2.332346902E0
1.284199858E1,7.246430969E-1,-1.669478302E0,-1.446292419E0,2.324656358E0
1.285200358E1,5.592370605E-1,-1.812730408E0,-1.316212921E0,2.308929205E0
1.286200758E1,2.594105530E-1,-1.928589478E0,-1.239123230E0,2.306984522E0
1.287201258E1,-8.008346558E-2,-1.791025543E0,-1.323098602E0,2.228177679E0
1.288201800E1,-2.965333557E-1,-1.612147522E0,-1.380429382E0,2.143020519E0
1.289202300E1,-3.677851868E-1,-1.410816193E0,-1.370100861E0,2.000711034E0
1.290202700E1,-3.529660034E-1,-1.259480896E0,-1.471889191E0,1.969094949E0
1.291203200E1,-3.143463135E-1,-1.129700775E0,-1.538949738E0,1.934787777E0
1.292203700E1,-1.480421448E-1,-1.051712952E0,-1.450334015E0,1.797633267E0
1.293204100E1,-7.170089722E-2,-7.723937988E-1,-1.337169342E0,1.545883258E0
1.294204600E1,-1.523831177E-1,-5.054988098E-1,-1.198856964E0,1.309964764E0
1.295205100E1,-3.230282593E-1,-2.847079468E-1,-1.069076843E0,1.152532502E0
1.296205500E1,-4.709207153E-1,-8.038284302E-2,-9.933343506E-1,1.102243555E0
1.297206000E1,-5.978567505E-1,2.275268555E-2,-9.169931030E-1,1.094909462E0
1.298206500E1,-7.634124756E-1,8.367599487E-2,-8.331674194E-1,1.133123219E0
1.299206900E1,-8.957373047E-1,8.382568359E-2,-7.596702576E-1,1.177485017E0
1.300207400E1,-1.026415558E0,2.335144043E-2,-7.164102173E-1,1.251925631E0
1.301207900E1,-1.099164276E0,-1.630110168E-1,-6.646179199E-1,1.294778621E0
1.302208300E1,-1.160536652E0,-4.339476013E-1,-6.042933655E-1,1.378523236E0
1.303208800E1,-1.155147858E0,-6.280938721E-1,-5.487588501E-1,1.424782356E0
1.304209300E1,-1.095422058E0,-7.267387390E-1,-5.001100159E-1,1.406488076E0
1.305209700E1,-1.017883301E0,-8.351133728E-1,-4.739144897E-1,1.399319729E0
1.306210200E1,-9.621990967E-1,-9.753717041E-1,-4.822970581E-1,1.452510762E0
1.307210700E1,-8.961863708E-1,-1.036444702E0,-5.081932068E-1,1.461378790E0
1.308211200E1,-8.318202209E-1,-1.044976959E0,-5.273533630E-1,1.435967721E0
1.309211600E1,-7.349716187E-1,-9.837542725E-1,-5.400769043E-1,1.341506173E0
1.310212100E1,-6.340814209E-1,-8.135581970E-1,-5.108876038E-1,1.151061394E0
1.311212600E1,-5.604345703E-1,-5.852828979E-1,-5.016069031E-1,9.530228032E-1
1.312213000E1,-4.846920776E-1,-3.341052246E-1,-4.843927002E-1,7.623575272E-1
1.313213500E1,-3.838018799E-1,-1.070274353E-1,-4.661306763E-1,6.132182012E-1
1.314214000E1,-2.869532776E-1,1.818717957E-1,-4.493655396E-1,5.633373072E-1
1.315214400E1,-2.897973633E-1,4.897814941E-1,-4.772076416E-1,7.426947940E-1
1.316214900E1,-3.692820740E-1,7.086264038E-1,-5.650749207E-1,9.786880485E-1
1.317215400E1,-4.866380310E-1,1.067280579E0,-9.288185120E-1,1.496197926E0
1.318215800E1,-1.299896851E0,2.856509857E0,-1.824705505E0,3.630279682E0
1.319216300E1,-9.320517883E0,1.613345032E1,-4.664001160E0,1.920711273E1
1.320216800E1,-2.376083908E1,4.212031036E1,1.678354843E1,5.118970128E1
1.321217200E1,-2.110446304E1,4.522575256E1,3.832674911E1,6.292620085E1
1.322217700E1,-2.110955246E1,3.405583054E1,2.321672058E-1,4.006827548E1
1.323218200E1,-2.479728378E1,4.053555588E1,-8.831035767E0,4.833242976E1
1.324218700E1,-2.399165909E1,5.231890228E1,-1.176658127E1,5.874793338E1
1.325219100E1,-1.633148849E1,6.049909149E1,7.595205688E-1,6.266924652E1
1.326219600E1,-1.418749695E1,3.954117371E1,2.137300461E1,4.713379694E1
1.327220100E1,-1.548035843E1,2.067470673E1,7.232659607E0,2.682156521E1
1.328220500E1,-1.377300888E1,1.477203140E1,1.786235504E0,2.027558440E1
1.329221000E1,-1.144774429E1,1.418240753E1,3.421884155E0,1.854456319E1
1.330221500E1,-9.395062866E0,1.701077591E1,4.925657043E0,2.004733899E1
1.331221900E1,-7.645650787E0,1.987102798E1,3.206482086E0,2.153126231E1
1.332222400E1,-8.369246063E0,1.916973633E1,-5.303471375E-1,2.092377448E1
1.333222900E1,-9.536668396E0,1.784648804E1,-1.507814484E0,2.029085222E1
1.334223300E1,-9.607620850E0,1.754606277E1,-1.370849304E0,2.005118264E1
1.335223800E1,-9.205706635E0,1.675600571E1,-7.743397522E-1,1.913395840E1
1.336224300E1,-8.318202209E0,1.535881119E1,2.082170105E-1,1.746793987E1
1.337224800E1,-7.012916565E0,1.366373611E1,1.049168243E0,1.539413646E1
1.338225200E1,-5.809119873E0,1.191073151E1,1.965412903E0,1.339679986E1
1.339225700E1,-4.929399261E0,1.052191956E1,2.604883118E0,1.190777831E1
1.340226200E1,-4.272415466E0,9.370513916E0,2.840642853E0,1.068313235E1
1.341226600E1,-3.679498444E0,8.023914185E0,2.971021729E0,9.313907759E0
1.342227100E1,-3.059787140E0,6.651268616E0,3.152444458E0,7.971171658E0
1.343227600E1,-2.283950500E0,5.279221802E0,3.346141663E0,6.654568111E0
1.344228000E1,-1.314117279E0,4.076472931E0,2.995121613E0,5.226403089E0
1.345228500E1,-3.969744873E-1,3.187172241E0,2.120939484E0,3.848901133E0
1.346229000E1,3.921844482E-1,2.620899811E0,1.132245483E0,2.881823085E0
1.347229400E1,1.409169617E0,1.575922852E0,2.968327332E-1,2.134807137E0
1.348229900E1,2.577490082E0,4.480183411E-1,-2.302212524E-1,2.626247776E0
1.349230400E1,3.146007843E0,-9.250762939E-2,-5.418731689E-1,3.193673362E0
1.350230800E1,2.918480988E0,-8.746311951E-1,-5.063969421E-1,3.088518879E0
1.351231300E1,2.563718719E0,-1.154249725E0,-2.516267395E-1,2.822811031E0
1.352231800E1,2.161056061E0,-1.017583923E0,-1.014889526E-1,2.390803285E0
1.353232200E1,1.885928192E0,-8.285270691E-1,-5.263055420E-1,2.126071441E0
1.354232700E1,1.696721649E0,-7.182064819E-1,-1.109941864E0,2.150966259E0
1.355233200E1,1.679357758E0,-6.411167908E-1,-9.900411987E-1,2.052182933E0
1.356233600E1,1.716630249E0,-6.951544189E-1,-7.081773376E-1,1.982819765E0
1.357234100E1,1.703607330E0,-8.134085083E-1,-5.824388123E-1,1.975638203E0
1.358234600E1,1.706750793E0,-8.649014282E-1,-4.406835938E-1,1.963480273E0
1.359235100E1,1.594184875E0,-1.001118164E0,-2.983296204E-1,1.905954763E0
1.360235500E1,1.358574829E0,-1.133442993E0,-1.817221069E-1,1.778606620E0
1.361236000E1,1.069675598E0,-1.258433075E0,-2.544708252E-2,1.651819374E0
1.362236500E1,7.120692444E-1,-1.414857788E0,2.080673218E-1,1.597547239E0
1.363236900E1,2.600093079E-1,-1.856589203E0,1.146166534E0,2.197322469E0
1.364237400E1,-5.215155029E-1,-1.766027527E0,2.068249054E0,2.769203097E0
1.365237900E1,-8.470884705E-1,9.005273438E-1,1.846260681E0,2.221978145E0
1.366238300E1,-4.499642944E-1,1.755249939E0,5.676196289E-1,1.898831814E0
1.367238800E1,-3.623963928E-1,1.380279694E0,-6.756948853E-1,1.578944824E0
1.368239300E1,-5.568420410E-1,1.885928192E0,-1.592388611E0,2.530316125E0
1.369239700E1,-1.676962738E0,4.206702118E0,-2.443368988E0,5.145735977E0
1.370240200E1,-1.070992859E1,1.765144363E1,-1.998793488E0,2.074297973E1
1.371240700E1,-2.100641693E1,3.044788330E1,-1.235231323E0,3.701174065E1
1.372241100E1,-2.063264420E1,2.941712677E1,-1.488804016E0,3.596233990E1
1.373241600E1,-2.131956573E1,3.187217148E1,-1.629960480E0,3.837989016E1
1.374242100E1,-2.260524216E1,3.568010284E1,-2.835254059E0,4.233326561E1
1.375242600E1,-2.229852997E1,4.101590698E1,5.668711853E-1,4.668886813E1
1.376243000E1,-1.470781494E1,2.836092316E1,2.135848480E1,3.842976263E1
1.377243500E1,-1.078956299E1,9.054371338E0,2.917088882E1,3.239347256E1
1.378244000E1,-1.047371979E1,4.021836548E0,1.312740143E1,1.726854492E1
1.379244400E1,-8.845854950E0,4.788242798E0,3.780089264E0,1.074548713E1
1.380244900E1,-7.690407715E0,5.696853333E0,8.637039185E-1,9.609500152E0
1.381245400E1,-6.248306580E0,5.189408569E0,-4.821473694E-1,8.136569455E0
1.382245800E1,-4.583318939E0,4.572092285E0,-1.456920319E0,6.635771031E0
1.383246300E1,-3.244952087E0,3.970343628E0,-2.133962402E0,5.554019995E0
1.384246800E1,-2.083966370E0,3.607348480E0,-2.693049774E0,4.960685031E0
1.385247200E1,-1.169218597E0,3.550017700E0,-3.108136597E0,4.861091534E0
1.386247700E1,-8.728349304E-1,4.166136475E0,-3.029550018E0,5.224625083E0
1.387248200E1,-9.933343506E-1,5.895639954E0,-2.404599609E0,6.444174336E0
1.388248608E1,-1.153501282E0,7.281757507E0,-1.631307678E0,7.550875601E0
1.389249108E1,-1.235530701E0,7.886499939E0,-1.131047974E0,8.062424382E0
1.390249608E1,-1.414259033E0,8.306676178E0,-9.937834167E-1,8.484609786E0
1.391250008E1,-1.735341339E0,8.670868835E0,-9.361532593E-1,8.892230252E0
1.392250508E1,-2.066153412E0,9.142388306E0,-5.902226257E-1,9.391518333E0
1.393251008E1,-2.393073578E0,9.902956696E0,8.771759033E-2,1.018837803E1
1.394251508E1,-2.762505341E0,1.106034988E1,1.689237213E0,1.152459534E1
1.395251908E1,-3.522624664E0,1.151001480E1,4.653822327E0,1.290532400E1
1.396252408E1,-4.976251831E0,1.022344025E1,5.975873108E0,1.284495513E1
1.397252908E1,-6.180796967E0,8.807983704E0,4.660109253E0,1.172601579E1
1.398253308E1,-6.759343872E0,8.138426056E0,2.649340668E0,1.090604026E1
1.399253808E1,-7.249275055E0,7.951614532E0,1.047521667E0,1.081098812E1
1.400254308E1,-7.762557678E0,7.826774139E0,-4.490661621E-3,1.102341668E1
1.401254708E1,-8.002209320E0,7.499704285E0,-1.893562317E-1,1.096890032E1
1.402255208E1,-7.876470795E0,7.064110107E0,2.773731995E-1,1.058382633E1
1.403255708E1,-7.625742188E0,6.806046753E0,6.599775696E-1,1.024254786E1
1.404256108E1,-7.481891327E0,6.659651184E0,8.439450073E-1,1.005195975E1
1.405256608E1,-7.504793701E0,6.499334564E0,9.755213928E-1,9.975716529E0
1.406257108E1,-7.525899811E0,6.357729034E0,1.245110779E0,9.930266224E0
1.407257508E1,-7.385042725E0,6.455775146E0,1.553170166E0,9.931174470E0
1.408258008E1,-6.971602478E0,6.865173798E0,1.413959656E0,9.886006994E0
1.409258508E1,-6.446494446E0,7.106621704E0,7.804769897E-1,9.626552187E0
1.410258908E1,-5.992039490E0,7.079078979E0,1.600172424E-1,9.275963668E0
1.411259408E1,-5.551056519E0,7.000043335E0,-1.564247131E-1,8.935284207E0
1.412259908E1,-5.182522888E0,6.870113525E0,-2.520758057E-1,8.609328984E0
1.413260308E1,-4.908293152E0,6.776707764E0,-2.207908630E-1,8.370415664E0
1.414260808E1,-4.688101044E0,6.767277374E0,4.730163574E-2,8.232652786E0
1.415261308E1,-4.480482788E0,6.826853485E0,7.488926697E-1,8.200091143E0
1.416261808E1,-4.102818146E0,6.652017059E0,1.716929626E0,8.001893216E0
1.417262208E1,-3.618874512E0,6.282734985E0,2.598446503E0,7.702008560E0
1.418262708E1,-2.962339783E0,5.957910461E0,2.952310638E0,7.279305747E0
1.419263108E1,-2.021246796E0,5.391787720E0,2.465522919E0,6.263834024E0
1.420263608E1,-1.182540894E0,5.116210785E0,1.853745117E0,5.568697040E0
1.421264108E1,-3.583547974E-1,4.797074432E0,2.077829132E0,5.240010990E0
1.422264608E1,3.887416077E-1,4.813240814E0,2.796484680E0,5.580209113E0
1.423265008E1,6.944059753E-1,5.702691193E0,3.973187714E0,6.984919978E0
1.424265508E1,3.008743286E-1,7.789052582E0,5.426814880E0,9.497904255E0
1.425266008E1,-8.083190918E-1,8.525521088E0,4.271517334E0,9.569939911E0
1.426266408E1,-2.548151093E0,6.447991333E0,7.379653931E-1,6.972392641E0
1.427266908E1,-3.375480652E0,4.232149200E0,-1.907183990E0,5.739538941E0
1.428267408E1,-2.067500610E0,3.783232727E0,-2.553539886E0,5.010785826E0
1.429267808E1,-6.541397095E-1,4.360731812E0,-2.544408875E0,5.090962307E0
1.430268308E1,2.047741699E-1,5.276976471E0,-2.496658173E0,5.841379560E0
1.431268808E1,5.963598633E-1,6.145470428E0,-2.176473999E0,6.546716043E0
1.432269208E1,8.729846191E-1,7.397017822E0,-7.247927856E-1,7.483535220E0
1.433269708E1,9.741741943E-1,1.010668304E1,2.530637512E0,1.046413798E1
1.434270208E1,7.331753540E-1,1.509041931E1,7.410489807E0,1.682776457E1
1.435270608E1,-8.518785095E-1,2.068488556E1,4.650080109E0,2.121823349E1
1.436271108E1,-3.753145294E0,2.434522385E1,-2.563419342E0,2.476584629E1
1.437271608E1,-5.434449005E0,2.356968658E1,2.524649963E0,2.431948230E1
1.438272008E1,-4.528383179E0,1.891751083E1,7.428751831E0,2.082221948E1
1.439272508E1,-3.591331787E0,1.404080200E1,1.751507721E0,1.459827264E1
1.440273008E1,-4.739593964E0,1.162692169E1,5.493576050E-1,1.256784997E1
1.441273408E1,-6.984924774E0,9.978848877E0,3.241509247E0,1.260452225E1
1.442273908E1,-8.078400879E0,8.897048492E0,2.883304138E0,1.235845765E1
1.443274408E1,-7.485783234E0,8.486152954E0,3.893403625E-1,1.132269087E1
1.444274908E1,-6.551426239E0,8.141270142E0,-3.297642517E-1,1.045515231E1
1.445275308E1,-6.602619781E0,8.270451508E0,7.792794800E-1,1.061141992E1
1.446275808E1,-7.260352020E0,9.764943695E0,3.522175598E0,1.266777635E1
1.447276308E1,-7.087012482E0,1.171029831E1,4.025728455E0,1.426756188E1
1.448276708E1,-6.801855469E0,1.377884674E1,4.182751923E0,1.592536558E1
1.449277208E1,-6.698869629E0,1.662368088E1,5.711223450E0,1.881062714E1
1.450277708E1,-6.969057770E0,1.935325470E1,7.074738007E0,2.175242864E1
1.451278108E1,-7.190447388E0,2.154439819E1,7.833809509E0,2.402565709E1
1.452278608E1,-7.139253845E0,2.278876053E1,8.548124084E0,2.536467972E1
1.453279108E1,-6.817423096E0,2.294832870E1,8.397986298E0,2.536984868E1
1.454279508E1,-7.053781586E0,2.278995804E1,8.070766754E0,2.518482277E1
1.455280008E1,-7.899522858E0,2.342613510E1,7.834108887E0,2.593375270E1
1.456280508E1,-9.102870483E0,2.444222214E1,6.480773163E0,2.687535851E1
1.457280908E1,-1.030008087E1,2.534454575E1,4.880750427E0,2.778955541E1
1.458281408E1,-1.130104935E1,2.589300522E1,3.146307220E0,2.842640823E1
1.459281908E1,-1.235246292E1,2.579900070E1,1.390159149E0,2.863746357E1
1.460282308E1,-1.260917908E1,2.467334152E1,1.818717957E-1,2.770917278E1
1.461282808E1,-1.152528305E1,2.336910370E1,-1.092877350E0,2.607952335E1
1.462283308E1,-9.721683655E0,2.149455185E1,-1.832489319E0,2.366188727E1
1.463283708E1,-8.095016327E0,1.993359787E1,-1.250798950E0,2.155091904E1
1.464284208E1,-7.486980743E0,1.895358582E1,-6.032455444E-1,2.038767277E1
1.465284708E1,-7.751480713E0,1.746133896E1,3.743714905E-1,1.910821722E1
1.466285108E1,-6.575675812E0,1.473655518E1,2.030976563E0,1.626439168E1
1.467285608E1,-3.999083862E0,1.073492661E1,4.764591980E0,1.240696005E1
1.468286108E1,-1.064286804E0,6.868766327E0,8.806636505E0,1.121915789E1
1.469286508E1,1.435814209E0,4.761747894E0,8.112230530E0,9.515465812E0
1.470287008E1,2.882555695E0,3.623814240E0,6.187532959E0,7.728306483E0
1.471287508E1,5.090464325E0,6.978488159E-1,1.234018845E1,1.336712650E1
1.472288008E1,6.461163940E0,-9.277706909E-1,1.230755630E1,1.393137969E1
1.473288408E1,5.254523163E0,-1.001567230E0,5.461093597E0,7.644389699E0
1.474288908E1,3.349883881E0,-8.340655518E-1,9.419911194E-1,3.578370387E0
1.475289308E1,1.238823853E0,-7.762857056E-1,-1.879042511E0,2.380778191E0
1.476289808E1,1.951940918E-1,-1.060993652E0,-3.192111969E0,3.369478756E0
1.477290308E1,2.083666992E-1,-1.259929962E0,-2.867886200E0,3.139364816E0
1.478290808E1,2.176473999E-1,-1.684447174E0,-2.235151978E0,2.807247235E0
1.479291208E1,1.336720276E-1,-1.855391693E0,-1.966909790E0,2.707227487E0
1.480291708E1,2.137554932E-1,-1.777403870E0,-1.646426239E0,2.432195569E0
1.481292108E1,3.511697388E-1,-1.698218536E0,-1.472038879E0,2.274679064E0
1.482292608E1,3.499722290E-1,-1.798060913E0,-1.490001526E0,2.361272571E0
1.483293108E1,1.779798889E-1,-1.912423096E0,-1.373244324E0,2.361109678E0
1.484293608E1,-5.598358154E-2,-1.983225861E0,-1.329535217E0,2.388301252E0
1.485294008E1,-3.417393494E-1,-1.979783020E0,-1.425635376E0,2.463485907E0
1.486294508E1,-6.553372192E-1,-1.910327454E0,-1.623224487E0,2.591076145E0
1.487295008E1,-9.545649719E-1,-1.778601379E0,-1.705253906E0,2.642443573E0
1.488295362E1,-1.200802917E0,-1.679058380E0,-1.753303986E0,2.708364738E0
1.489295862E1,-1.486708374E0,-1.547781372E0,-1.990111542E0,2.926853757E0
1.490296362E1,-1.560355225E0,-1.378633118E0,-2.257305908E0,3.070955497E0
1.491296763E1,-1.463656311E0,-1.267414398E0,-2.412233734E0,3.093137669E0
1.492297263E1,-1.445543976E0,-9.993218994E-1,-2.490071869E0,3.047736793E0
1.493297762E1,-1.475332031E0,-7.997868347E-1,-2.508932648E0,3.018444403E0
1.494298162E1,-1.486708374E0,-7.688012695E-1,-2.458786926E0,2.974389068E0
1.495298662E1,-1.588646393E0,-7.318281555E-1,-2.341730347E0,2.922853200E0
1.496299163E1,-1.567540283E0,-7.949967957E-1,-2.103276215E0,2.740980350E0
1.497299562E1,-1.598525848E0,-8.282276917E-1,-1.842219086E0,2.575852705E0
1.498300062E1,-1.553768921E0,-8.111631775E-1,-1.612147522E0,2.381428813E0
1.499300562E1,-1.425635376E0,-9.574090576E-1,-1.335522766E0,2.175474520E0
1.500300963E1,-1.365909576E0,-1.051413574E0,-1.060843964E0,2.023998367E0
1.501301463E1,-1.317560120E0,-1.137035522E0,-8.199948120E-1,1.923851850E0
1.502301962E1,-1.294058990E0,-1.197809143E0,-6.424639893E-1,1.876724645E0
1.503302362E1,-1.240171051E0,-1.250948639E0,-5.216651917E-1,1.837125827E0
1.504302863E1,-1.156644745E0,-1.242266693E0,-4.730163574E-1,1.762043722E0
1.505303363E1,-1.084195404E0,-1.198707275E0,-4.105961609E-1,1.667623463E0
1.506303762E1,-1.012943573E0,-1.115779724E0,-3.296145630E-1,1.542616231E0
1.507304262E1,-9.788145447E-1,-1.068777466E0,-2.891986084E-1,1.477835924E0
1.508304762E1,-9.639953613E-1,-1.030906219E0,-2.302212524E-1,1.430054725E0
1.509305163E1,-8.836125183E-1,-9.653425598E-1,-1.742376709E-1,1.320233353E0
1.510305662E1,-7.271878052E-1,-8.599617004E-1,-6.496490479E-2,1.128076535E0
1.511306162E1,-5.264552307E-1,-7.244934082E-1,3.906875610E-2,8.964218740E-1
1.512306562E1,-3.701802063E-1,-5.366340637E-1,8.143066406E-2,6.569934981E-1
1.513307063E1,-2.378553772E-1,-1.802252197E-1,5.164260864E-2,3.028584972E-1
1.514307563E1,-1.993853760E-1,2.836601257E-1,-6.137237549E-2,3.521138503E-1
1.515307962E1,-3.245251465E-1,7.071295166E-1,-3.987707520E-1,8.742807539E-1
1.516308462E1,-1.096320190E0,2.314487000E0,-1.044677582E0,2.765884900E0
1.517308962E1,-1.157947037E1,1.904130341E1,2.468965759E0,2.242211322E1
1.518309363E1,-3.188025467E1,5.610467972E1,6.214222458E1,8.958650456E1
1.519309862E1,-2.409973434E1,3.974400192E1,2.466795273E1,5.262025063E1
1.520310362E1,-2.732747223E1,3.354479324E1,-2.337359436E1,4.917691334E1
1.521310762E1,-2.999387741E1,4.928052063E1,-1.830663116E1,6.052549166E1
1.522311263E1,-2.875744858E1,5.445570877E1,-2.023896286E1,6.482307216E1
1.523311763E1,-2.387071060E1,4.701228745E1,-6.282285919E0,5.309833436E1
1.524312262E1,-1.659000092E1,2.903766586E1,1.521301437E1,3.674030451E1
1.525312662E1,-1.121512802E1,1.917273010E1,1.521181686E1,2.692159075E1
1.526313163E1,-9.496551819E0,1.904998535E1,1.472487946E0,2.133669747E1
1.527313563E1,-8.839418335E0,1.835557938E1,3.912713470E0,2.074540762E1
1.528314062E1,-6.969806213E0,1.796998123E1,8.177943878E0,2.093745902E1
1.529314562E1,-7.454198914E0,1.777403870E1,4.073329468E0,1.969958238E1
1.530315062E1,-9.496252441E0,1.646995056E1,1.720222778E0,1.908919192E1
1.531315463E1,-9.590406647E0,1.598600693E1,1.562001801E0,1.870743614E1
1.532315962E1,-9.089398499E0,1.541569290E1,1.679058380E0,1.797442599E1
1.533316362E1,-8.338110809E0,1.423569672E1,1.636546783E0,1.657882500E1
1.534316862E1,-7.474406891E0,1.278401550E1,1.770368500E0,1.491415487E1
1.535317363E1,-6.556216278E0,1.107876160E1,2.026635590E0,1.303189097E1
1.536317863E1,-5.598507843E0,9.400451660E0,2.356998596E0,1.119228412E1
1.537318262E1,-4.683460693E0,7.684420166E0,2.430795135E0,9.321688814E0
1.538318762E1,-3.686533813E0,6.017785950E0,2.399659882E0,7.454035608E0
1.539319262E1,-2.583178253E0,4.449197845E0,2.546504517E0,5.740457874E0
1.540319663E1,-1.567240906E0,2.989283752E0,2.831362152E0,4.405527556E0
1.541320162E1,-5.578898621E-1,1.793869629E0,3.091521149E0,3.617556130E0
1.542320662E1,2.255809021E-1,6.773414612E-1,3.027005310E0,3.110054557E0
1.543321062E1,9.142987061E-1,3.673361206E-1,1.962419128E0,2.195897717E0
1.544321563E1,1.398392029E0,6.261479187E-1,1.474433899E-1,1.539253402E0
1.545322063E1,1.752854919E0,3.347039795E-1,-1.096170502E0,2.094305826E0
1.546322462E1,1.641037445E0,-3.089575195E-1,-1.615440674E0,2.323382710E0
1.547322962E1,1.434616699E0,-6.914122009E-1,-1.622775421E0,2.273670155E0
1.548323463E1,1.373244324E0,-7.164102173E-1,-1.182091827E0,1.948431333E0
1.549323863E1,1.440753937E0,-5.995033264E-1,-8.030799866E-1,1.755025245E0
1.550324362E1,1.422641602E0,-6.692582703E-1,-5.001100159E-1,1.649825987E0
1.551324862E1,1.274749146E0,-9.186396790E-1,-3.448828125E-1,1.608672869E0
1.552325263E1,1.203647003E0,-1.116528168E0,-2.441423035E-1,1.659821292E0
1.553325763E1,1.286125488E0,-1.109343109E0,-8.891510010E-2,1.700784172E0
1.554326262E1,1.330583038E0,-1.183738403E0,-3.547622681E-2,1.781276619E0
1.555326662E1,1.171463928E0,-1.369053040E0,-4.385879517E-2,1.802375531E0
1.556327162E1,8.434959412E-1,-1.497935028E0,-7.484436035E-2,1.720725553E0
1.557327663E1,4.293072510E-1,-1.549577637E0,-1.252894592E-1,1.612821446E0
1.558328062E1,-1.390608215E-1,-9.205856323E-1,-1.332229614E-1,9.405127197E-1
1.559328562E1,-3.192860413E-1,6.333329773E-1,-1.978884888E-1,7.363518794E-1
1.560329062E1,-3.044668579E-1,1.169218597E0,-5.795947266E-1,1.340038150E0
1.561329463E1,-5.278024292E-1,1.559906158E0,-1.259031830E0,2.072931204E0
1.562329963E1,-8.282276917E-1,2.347418518E0,-2.182760925E0,3.310706883E0
1.563330462E1,-2.990930328E0,5.090913391E0,-2.677482147E0,6.483207079E0
1.564330862E1,-1.506272690E1,2.172716812E1,-8.500822449E-1,2.645143127E1
1.565331363E1,-2.363046021E1,3.204955261E1,-2.306553497E0,3.988599580E1
1.566331863E1,-2.387295593E1,3.447031860E1,-4.284689941E0,4.214830314E1
1.567332262E1,-2.362567017E1,3.675501755E1,-1.399888916E0,4.371570993E1
1.568332762E1,-2.262784515E1,3.693389557E1,4.644990692E0,4.356268996E1
1.569333262E1,-1.734997055E1,2.732792130E1,1.709909225E1,3.660895678E1
1.570333663E1,-1.068133804E1,1.215831665E1,1.786774384E1,2.410750746E1
1.571334162E1,-8.521629181E0,8.349936218E0,5.662873993E0,1.320635228E1
1.572334662E1,-6.843169556E0,7.971373444E0,9.801617432E-1,1.055142081E1
1.573335062E1,-4.934189301E0,6.348747711E0,3.478765869E-1,8.048219659E0
1.574335563E1,-3.167113953E0,4.585414581E0,-6.313870239E-1,5.608501337E0
1.575336063E1,-1.572330322E0,3.175346832E0,-1.525926819E0,3.857914308E0
1.576336462E1,-4.866380310E-1,2.384092255E0,-2.218087463E0,3.292510356E0
1.577336962E1,6.975494385E-2,1.779349823E0,-2.483784943E0,3.056164129E0
1.578337462E1,3.290158081E-1,1.651815033E0,-2.450404358E0,2.973419887E0
1.579337863E1,4.679269409E-1,2.048639832E0,-2.216440887E0,3.054257846E0
1.580338362E1,3.891906738E-3,3.055146790E0,-1.830693054E0,3.561653283E0
1.581338862E1,-1.121018829E0,4.384682007E0,-1.377136230E0,4.730605005E0
1.582339262E1,-1.961970062E0,6.235732727E0,-1.577120361E0,6.724655962E0
1.583339763E1,-2.692151642E0,8.636739807E0,-2.016456757E0,9.268605764E0
1.584340263E1,-3.289858704E0,1.102277802E1,-1.592238922E0,1.161292514E1
1.585340662E1,-3.448079681E0,1.315659073E1,4.809498596E-1,1.360942489E1
1.586341162E1,-2.753374329E0,1.531734741E1,6.339167633E0,1.680438182E1
1.587341663E1,-2.601140900E0,1.541060349E1,1.127949417E1,1.927380664E1
1.588342508E1,-3.906127167E0,1.218361404E1,7.984396362E0,1.508140795E1
1.589343008E1,-4.659959564E0,9.680668945E0,2.899620209E0,1.112826904E1
1.590343508E1,-5.008434906E0,8.855285339E0,4.484674072E-1,1.018339932E1
1.591343908E1,-5.304668884E0,8.327033844E0,-1.213227081E0,9.947407932E0
1.592344408E1,-5.501060486E0,7.667355652E0,-1.263372803E0,9.520825594E0
1.593344908E1,-5.689368896E0,7.257507935E0,2.634521484E-1,9.225494398E0
1.594345308E1,-6.061495056E0,6.950795746E0,2.060315552E0,9.449877459E0
1.595345808E1,-6.551725616E0,6.998247070E0,3.549568634E0,1.022252455E1
1.596346308E1,-6.491550751E0,7.749235382E0,4.081262970E0,1.090172406E1
1.597346708E1,-5.769302673E0,8.455915833E0,3.353326721E0,1.077182278E1
1.598347208E1,-4.655019836E0,8.722810822E0,2.148033142E0,1.011783992E1
1.599347708E1,-3.499722290E0,8.734785919E0,1.171014862E0,9.482395107E0
1.600348108E1,-2.502496033E0,8.659941559E0,6.738986206E-1,9.039425510E0
1.601348608E1,-1.682650909E0,8.605454865E0,6.529421997E-1,8.792695891E0
1.602349108E1,-1.138831787E0,8.533005524E0,9.369017029E-1,8.659498017E0
1.603349508E1,-9.424401855E-1,8.351283417E0,1.282832336E0,8.501634373E0
1.604350008E1,-1.140478363E0,8.011040955E0,1.536554718E0,8.236411140E0
1.605350508E1,-1.556313629E0,7.585326233E0,1.694626007E0,7.926603527E0
1.606350908E1,-1.917362823E0,7.192393341E0,1.765728149E0,7.650137127E0
1.607351408E1,-2.179467773E0,6.881340179E0,1.637893982E0,7.401730820E0
1.608351908E1,-2.461631012E0,6.629863129E0,1.240021362E0,7.179997585E0
1.609352308E1,-2.775378571E0,6.272705841E0,7.321275330E-1,6.898229882E0
1.610352808E1,-3.014880524E0,5.666167145E0,2.695893860E-1,6.423988879E0
1.611353308E1,-3.229983215E0,5.013524323E0,-8.756790161E-2,5.964552443E0
1.612353708E1,-3.656446381E0,4.730462952E0,-5.927673340E-2,5.979163286E0
1.613354208E1,-4.413272552E0,4.780758362E0,4.302053833E-1,6.520559931E0
1.614354708E1,-5.313949585E0,4.865931244E0,1.141226807E0,7.295049396E0
1.615355108E1,-6.292015686E0,4.921316071E0,2.061812439E0,8.249841440E0
1.616355608E1,-6.835385742E0,4.820126495E0,3.046464844E0,8.901520416E0
1.617356108E1,-7.268734589E0,4.548740845E0,3.447780304E0,9.241901039E0
1.618356508E1,-7.609276428E0,4.166735229E0,3.429218903E0,9.328575053E0
1.619357008E1,-7.291636963E0,4.259242859E0,3.840114441E0,9.276615668E0
1.620357508E1,-5.785918121E0,4.285588074E0,2.642305298E0,7.669738648E0
1.621357908E1,-3.177592163E0,4.186643829E0,-9.758207703E-1,5.345774470E0
1.622358408E1,-8.640032959E-1,4.785398712E0,-3.557502136E0,6.025144312E0
1.623358908E1,1.390608215E-1,6.410569153E0,-4.427642670E0,7.792223969E0
1.624359308E1,7.328759766E-1,9.020841064E0,-2.549797668E0,9.402879817E0
1.625359808E1,1.676813049E0,1.206161774E1,2.977308655E0,1.253629496E1
1.626360308E1,2.022893372E0,1.456441315E1,4.286186829E0,1.531618835E1
1.627360708E1,1.967658234E0,1.749427048E1,4.360881500E0,1.813666083E1
1.628361208E1,1.990859985E0,2.095327744E1,4.985233154E0,2.162997708E1
1.629361608E1,1.650767212E0,2.253414001E1,3.706741791E0,2.289655942E1
1.630362108E1,6.511459351E-1,2.091241241E1,2.460283813E0,2.106670312E1
1.631362608E1,-4.469705200E-1,1.758498184E1,9.333091736E-1,1.761540335E1
1.632363108E1,-1.186582489E0,1.391566223E1,5.568420410E-1,1.397725676E1
1.633363508E1,-1.782792664E0,1.048734146E1,1.253493347E0,1.071139235E1
1.634364008E1,-2.424358521E0,7.972271576E0,1.375339966E0,8.445483310E0
1.635364408E1,-3.436853027E0,6.711144104E0,3.257825317E0,8.213698297E0
1.636364908E1,-4.391717377E0,6.541247406E0,3.371139679E0,8.569695553E0
1.637365408E1,-5.474715271E0,7.173382874E0,3.467389526E0,9.667094666E0
1.638365908E1,-5.543721771E0,8.890162811E0,3.203787689E0,1.095591628E1
1.639366308E1,-4.209546204E0,1.170610703E1,3.548071747E0,1.293607491E1
1.640366808E1,-3.491788788E0,1.454674988E1,4.587659912E0,1.564759229E1
1.641367208E1,-4.120032349E0,1.652548508E1,5.374423828E0,1.785919245E1
1.642367708E1,-5.106331329E0,1.701990692E1,5.368885345E0,1.856277946E1
1.643368208E1,-5.417534180E0,1.632849472E1,5.358706512E0,1.801902195E1
1.644368708E1,-5.235512695E0,1.549847076E1,5.399870911E0,1.722706577E1
1.645369108E1,-4.348607025E0,1.514340912E1,5.079686737E0,1.655404604E1
1.646369608E1,-3.167413330E0,1.592268860E1,6.197113037E0,1.737724746E1
1.647370008E1,-2.061513062E0,1.777194305E1,6.203100586E0,1.893595133E1
1.648370508E1,-9.388476562E-1,2.012969009E1,5.738616486E0,2.095274630E1
1.649371008E1,-2.703378296E-1,2.241109589E1,5.267396393E0,2.302337434E1
1.650371408E1,-4.689747620E-1,2.412353485E1,4.337979126E0,2.451495327E1
1.651371908E1,-1.323847046E0,2.592698456E1,4.012406158E0,2.626900269E1
1.652372408E1,-2.574645996E0,2.786231003E1,3.785627747E0,2.823593631E1
1.653372808E1,-3.988006897E0,2.921594513E1,2.905158691E0,2.962964049E1
1.654373308E1,-5.428611145E0,3.008039749E1,1.942959595E0,3.062801372E1
1.655373808E1,-6.304439850E0,2.979718643E1,1.281335449E0,3.048376784E1
1.656374208E1,-6.902595978E0,2.861614243E1,8.202941895E-1,2.944829912E1
1.657374708E1,-7.913144531E0,2.707839020E1,6.990463257E-1,2.821959847E1
1.658375208E1,-7.941136322E0,2.517360123E1,7.065307617E-1,2.640589007E1
1.659375608E1,-8.068970490E0,2.309771805E1,9.243278503E-1,2.448402021E1
1.660376108E1,-8.400680695E0,2.052187454E1,1.477277985E0,2.222388627E1
1.661376608E1,-9.485774231E0,1.691961548E1,3.015030212E0,1.963017340E1
