"Time (s)","Acceleration x (m/s^2)","Acceleration y (m/s^2)","Acceleration z (m/s^2)","Absolute acceleration (m/s^2)"
1.594583155E-4,2.161205750E0,9.334588623E0,2.405797119E0,9.878927818E0
1.016445830E-2,2.129022675E0,9.421408081E0,2.365830231E0,9.944486938E0
2.016845829E-2,2.088756409E0,9.360035706E0,2.341430969E0,9.871953744E0
3.017345833E-2,2.135309601E0,9.324409790E0,2.292333069E0,9.836613031E0
4.017845832E-2,2.194286957E0,9.296417999E0,2.205363922E0,9.803158312E0
5.018245830E-2,2.246378632E0,9.293424225E0,2.119891663E0,9.793257448E0
6.018745829E-2,2.288890228E0,9.265731812E0,1.993853760E0,9.750295241E0
7.019145833E-2,2.282603302E0,9.251810760E0,1.918710022E0,9.720479841E0
8.019645832E-2,2.216590576E0,9.260043640E0,1.849254456E0,9.699557930E0
9.020045830E-2,2.145039368E0,9.242530060E0,1.843566284E0,9.665624265E0
1.002054583E-1,2.132914581E0,9.231153717E0,1.925595703E0,9.668063010E0
1.102094583E-1,2.183958435E0,9.225016479E0,1.904489594E0,9.669420050E0
1.202144583E-1,2.240241394E0,9.201964417E0,1.870061188E0,9.653598266E0
1.302184583E-1,2.307601318E0,9.303902435E0,1.873354340E0,9.767142922E0
1.402234583E-1,2.279160461E0,9.368867340E0,1.876647491E0,9.823036875E0
1.502274583E-1,2.144590302E0,9.386979675E0,1.910926208E0,9.816633535E0
1.602324583E-1,1.979483643E0,9.425150299E0,1.950294342E0,9.826263871E0
1.702364583E-1,1.869761810E0,9.417216797E0,2.065404968E0,9.820686285E0
1.802414583E-1,1.851200409E0,9.413474579E0,2.204465790E0,9.843785655E0
1.902454583E-1,1.891017609E0,9.569001160E0,2.205812988E0,1.000036708E1
2.002504583E-1,1.890269165E0,9.529333649E0,2.261796570E0,9.974820351E0
2.102544583E-1,1.934726715E0,9.512119446E0,2.431393890E0,1.000676072E1
2.202594583E-1,1.972148895E0,9.424551544E0,2.520758057E0,9.953178601E0
2.302634583E-1,1.882784729E0,9.329798584E0,2.493814087E0,9.839163006E0
2.402684583E-1,1.733245697E0,9.291777649E0,2.417772217E0,9.756377146E0
2.502724583E-1,1.707499237E0,9.276210022E0,2.324216766E0,9.714196292E0
2.602774583E-1,1.751956787E0,9.263636169E0,2.120490417E0,9.663373493E0
2.702814583E-1,1.826950836E0,9.252409515E0,1.937121735E0,9.627942242E0
2.802864583E-1,1.938917999E0,9.132508850E0,1.740730133E0,9.496960688E0
2.902904583E-1,2.118993530E0,9.145681458E0,1.650916901E0,9.532006584E0
3.002954583E-1,1.960473175E0,9.365574188E0,1.682650909E0,9.715387230E0
3.102994583E-1,1.686991882E0,9.439221039E0,2.284100189E0,9.857076093E0
3.203044583E-1,1.720372467E0,9.089099121E0,2.872975616E0,9.686350869E0
3.303084583E-1,2.355501709E0,8.427924042E0,3.131338348E0,9.294276293E0
3.403134583E-1,2.908152466E0,8.000562744E0,2.454445953E0,8.859495467E0
3.503174583E-1,3.228935394E0,7.943381653E0,2.548450470E0,8.945274488E0
3.603259583E-1,3.065625000E0,6.722221069E0,2.333497467E0,7.748001237E0
3.703299583E-1,2.766247559E0,6.079308014E0,1.648072815E0,6.879408077E0
3.803349583E-1,2.557282104E0,6.810687103E0,1.745220795E0,7.481373283E0
3.903389583E-1,2.265838165E0,8.065976715E0,1.382525024E0,8.491488586E0
4.003439583E-1,1.640139313E0,9.208850098E0,1.069226532E0,9.414681219E0
4.103479583E-1,1.967059479E0,1.106963058E1,1.358275452E0,1.132479388E1
4.203529583E-1,2.889441376E0,1.328831680E1,2.394121399E0,1.380797060E1
4.303569583E-1,2.428549805E0,1.511631546E1,4.479584656E0,1.595203830E1
4.403619583E-1,6.484515381E-1,1.489342896E1,6.064488831E0,1.609387275E1
4.503669583E-1,-5.418731689E-2,1.193468170E1,5.588778076E0,1.317854332E1
4.603709583E-1,1.412462769E0,9.827214203E0,3.446433105E0,1.050938111E1
4.703759583E-1,2.494113464E0,9.344168701E0,1.276246033E0,9.755147084E0
4.803799583E-1,2.948718109E0,8.923244019E0,1.511856079E-1,9.399046728E0
4.903849583E-1,3.291355591E0,8.491092682E0,2.963836670E-2,9.106731301E0
5.003889583E-1,3.617078247E0,8.454568634E0,3.296145630E-1,9.201718948E0
5.103939583E-1,3.868704987E0,8.685538330E0,7.729925537E-1,9.539547780E0
5.203979583E-1,4.032614136E0,9.025631104E0,1.073567505E0,9.943668376E0
5.304029583E-1,3.962110748E0,9.094487915E0,1.218166809E0,9.994596660E0
5.404069583E-1,3.678750000E0,8.903634796E0,1.322050781E0,9.723977191E0
5.504119583E-1,3.446133728E0,8.701105957E0,1.480571136E0,9.475081711E0
5.604159583E-1,3.331621857E0,8.567583618E0,1.617835693E0,9.333840880E0
5.704209583E-1,3.322490845E0,8.550369415E0,1.522184601E0,9.298645520E0
5.804249583E-1,3.319796448E0,8.613687744E0,1.235680389E0,9.313622874E0
5.904299583E-1,3.329975281E0,8.795110474E0,9.375004578E-1,9.451011095E0
6.004339583E-1,3.304079132E0,9.005572815E0,7.273374939E-1,9.620098776E0
6.104389583E-1,3.241509247E0,9.092991028E0,6.020480347E-1,9.672245337E0
6.204429583E-1,3.186872864E0,9.088350677E0,5.200186157E-1,9.644931106E0
6.304479583E-1,3.150199127E0,9.023685150E0,4.242178345E-1,9.567163059E0
6.404519583E-1,3.105292511E0,8.901688843E0,3.106040955E-1,9.432888250E0
6.504569583E-1,3.121608582E0,8.769064636E0,2.519261169E-1,9.311519828E0
6.604609583E-1,3.237467651E0,8.692723389E0,2.869532776E-1,9.280462213E0
6.704659583E-1,3.457809448E0,8.804091797E0,3.583547974E-1,9.465563729E0
6.804699583E-1,3.702700195E0,8.947643280E0,4.532574463E-1,9.694109104E0
6.904749583E-1,3.950584717E0,9.067244568E0,5.412744141E-1,9.905302704E0
7.004789583E-1,4.181554413E0,9.150621185E0,5.924679565E-1,1.007820836E1
7.104839583E-1,4.402794342E0,9.190139008E0,6.403683472E-1,1.021045173E1
7.204879583E-1,4.614753571E0,9.135053558E0,6.947053528E-1,1.025805876E1
7.304929583E-1,4.824018402E0,9.049581299E0,7.349716187E-1,1.028135490E1
7.404969583E-1,5.057682495E0,9.003477173E0,6.924600220E-1,1.034998813E1
7.505019583E-1,5.287604370E0,8.977431335E0,6.126759338E-1,1.043687717E1
7.605059583E-1,5.462141418E0,8.879834290E0,5.788462830E-1,1.044133655E1
7.705109583E-1,5.563929749E0,8.694070587E0,5.918692017E-1,1.033897900E1
7.805149583E-1,5.643863525E0,8.510552216E0,7.729925537E-1,1.024110404E1
7.905199583E-1,5.667813721E0,8.298293610E0,1.092278595E0,1.010835604E1
8.005239583E-1,5.514682159E0,8.262817383E0,1.454674988E0,1.004001742E1
8.105289583E-1,5.108426971E0,8.264613647E0,1.938319244E0,9.907418754E0
8.205329583E-1,4.772076416E0,8.270002441E0,2.378553772E0,9.839876612E0
8.305379583E-1,4.656816101E0,8.351283417E0,2.508633270E0,9.885500078E0
8.405429583E-1,4.677922211E0,8.420140228E0,2.354453888E0,9.915904940E0
8.505469583E-1,4.719385986E0,8.428971863E0,2.057770844E0,9.876972795E0
8.605519583E-1,4.629423065E0,8.411458282E0,1.513053589E0,9.719748943E0
8.705559583E-1,4.164040833E0,8.422385559E0,6.453080750E-1,9.417655604E0
8.805609583E-1,3.403023376E0,8.416547699E0,-1.425036621E-1,9.079600793E0
8.905649583E-1,2.984493713E0,8.237819366E0,-3.101550293E-1,8.767272482E0
9.005699583E-1,3.000959473E0,8.035589905E0,2.436932373E-1,8.581133332E0
9.105739583E-1,3.402873688E0,8.113577728E0,1.198856964E0,8.879580559E0
9.205789583E-1,3.935466156E0,8.583750000E0,2.217488708E0,9.699789384E0
9.305829583E-1,4.184697876E0,9.287137299E0,3.045417023E0,1.063189449E1
9.405879583E-1,4.017345886E0,9.905202026E0,3.670367432E0,1.130149071E1
9.505919583E-1,3.484753418E0,1.024529480E1,4.053420868E0,1.155594188E1
9.605969583E-1,2.798580322E0,1.026640091E1,3.978875885E0,1.136056745E1
9.706009583E-1,2.159409485E0,9.951755219E0,3.496878204E0,1.076701623E1
9.806059583E-1,1.807790680E0,9.588760071E0,3.044668579E0,1.022166491E1
9.906099583E-1,1.803150330E0,9.148226166E0,2.802322540E0,9.736241817E0
1.000614958E0,2.107018433E0,8.732091522E0,2.675835571E0,9.372782139E0
1.010618958E0,2.627486115E0,8.331225128E0,2.644999695E0,9.127377433E0
1.020623958E0,3.125949554E0,7.845185852E0,2.648592224E0,8.850623845E0
1.030627958E0,3.482208710E0,7.465275879E0,2.250120850E0,8.539271941E0
1.040632958E0,3.756887512E0,7.410190430E0,1.629960480E0,8.466516235E0
1.050636958E0,4.030518494E0,7.709717560E0,1.271905060E0,8.792187820E0
1.060641958E0,4.394112396E0,8.268954620E0,1.183439026E0,9.438451260E0
1.070645958E0,4.567601624E0,8.859776001E0,1.323847046E0,1.005540583E1
1.080650958E0,4.537214813E0,9.354646912E0,1.549577637E0,1.051175190E1
1.090654958E0,4.407883759E0,9.662107544E0,1.918410645E0,1.079194426E1
1.100659958E0,4.251309357E0,9.707463226E0,2.747536469E0,1.094794182E1
1.110663958E0,3.634891205E0,9.502838745E0,3.643124084E0,1.080688352E1
1.120668958E0,2.271376648E0,9.103618927E0,3.946692810E0,1.017896918E1
1.130672958E0,8.884025574E-1,8.733588409E0,3.921245728E0,9.614623948E0
1.140677958E0,-6.062393188E-2,8.634494476E0,3.884871368E0,9.468389286E0
1.150681958E0,-6.994953918E-1,8.719068604E0,3.841461639E0,9.553443287E0
1.160686958E0,-1.118324432E0,8.829688568E0,3.629801788E0,9.611946253E0
1.170691958E0,-1.276695099E0,8.983269196E0,3.147804108E0,9.604048444E0
1.180695958E0,-1.168470154E0,9.141190796E0,2.511627045E0,9.551699434E0
1.190700958E0,-8.208929443E-1,9.239985352E0,1.906285858E0,9.470222822E0
1.200704958E0,-4.448748779E-1,9.155710602E0,1.439706116E0,9.278884846E0
1.210709958E0,-1.568737793E-1,8.864715729E0,1.211879883E0,8.948544417E0
1.220713958E0,5.388793945E-3,8.451275482E0,1.188977509E0,8.534503725E0
1.230718958E0,7.499404907E-2,7.865393829E0,1.215322723E0,7.959086224E0
1.240722958E0,1.799258423E-1,7.185657349E0,1.056652679E0,7.265160681E0
1.250727958E0,5.096900940E-1,6.434818726E0,7.589218140E-1,6.499433694E0
1.260731958E0,8.647517395E-1,5.679788818E0,6.327342224E-1,5.779978303E0
1.270736958E0,1.107097778E0,5.153483276E0,8.521778870E-1,5.339500213E0
1.280740958E0,1.503323822E0,4.730912018E0,1.781744843E0,5.274099517E0
1.290745958E0,2.461481323E0,4.729564819E0,4.093836823E0,6.722140553E0
1.300749958E0,3.788920898E0,5.143903198E0,6.833439789E0,9.354761410E0
1.310754958E0,4.113446045E0,5.345533905E0,7.098089447E0,9.791733498E0
1.320758958E0,3.009791107E0,5.275629272E0,4.789290619E0,7.734882763E0
1.330763958E0,1.722617798E0,5.519172821E0,1.834285583E0,6.065746805E0
1.340767958E0,9.063652039E-1,6.216123505E0,-3.582051086E-1,6.292058503E0
1.350772958E0,6.933581543E-1,7.177723846E0,-8.933422852E-1,7.266259394E0
1.360773708E0,1.281485138E0,8.606951752E0,3.441343689E-1,8.708630838E0
1.370778708E0,3.038681030E0,1.038540344E1,3.382516022E0,1.133717785E1
1.380782708E0,5.129233704E0,1.164009430E1,5.971382446E0,1.405198356E1
1.390787708E0,5.908064117E0,1.133697464E1,5.694757690E0,1.399508774E1
1.400791708E0,5.837261353E0,1.049752029E1,2.681823120E0,1.230706007E1
1.410796708E0,5.932164001E0,1.032238449E1,4.468208313E-1,1.191393471E1
1.420800708E0,6.192772064E0,1.075513458E1,1.016386414E-1,1.241103042E1
1.430805708E0,7.109016724E0,1.173604477E1,1.084644470E0,1.376405897E1
1.440809708E0,8.506061554E0,1.260902939E1,2.873574371E0,1.547895781E1
1.450814708E0,9.246571655E0,1.260977783E1,3.200943604E0,1.596094058E1
1.460818708E0,9.293124847E0,1.180744629E1,2.440075836E0,1.522274375E1
1.470823708E0,9.301208038E0,1.051368668E1,2.148482208E0,1.420091738E1
1.480827708E0,9.165440369E0,8.712033234E0,2.455344086E0,1.288151912E1
1.490832708E0,8.272247772E0,7.958200836E0,2.836451569E0,1.182406450E1
1.500836708E0,7.687713318E0,9.444909210E0,3.536396027E0,1.268122009E1
1.510841708E0,7.294780426E0,1.075288925E1,4.365521851E0,1.370752457E1
1.520845708E0,6.568341064E0,1.141391464E1,4.477039948E0,1.390914945E1
1.530850708E0,5.760171661E0,1.165745819E1,4.215084686E0,1.366904708E1
1.540855708E0,5.017565918E0,1.150806885E1,4.464915161E0,1.332467950E1
1.550859708E0,4.465364227E0,1.110914841E1,4.376748505E0,1.274788545E1
1.560864708E0,4.111350403E0,1.078237793E1,4.165238342E0,1.226833674E1
1.570868708E0,3.915557556E0,1.088506439E1,4.751119995E0,1.250557312E1
1.580873708E0,4.141437836E0,1.159982803E1,5.549859009E0,1.350956893E1
1.590877708E0,4.706063690E0,1.282024017E1,6.124813385E0,1.496726203E1
1.600882708E0,5.087320862E0,1.442415482E1,6.776707764E0,1.672904193E1
1.610886708E0,5.120551758E0,1.633747604E1,6.927444305E0,1.846950618E1
1.620891708E0,5.648204498E0,1.830094299E1,7.575297089E0,2.059640392E1
1.630895708E0,6.868017883E0,1.970816666E1,9.190438385E0,2.280450965E1
1.640900708E0,8.322992249E0,2.091001740E1,1.017763550E1,2.469990469E1
1.650904708E0,1.016895355E1,2.295237030E1,8.146808624E0,2.639298031E1
1.660909708E0,1.199590439E1,2.579600693E1,5.237907715E0,2.892700076E1
1.670913708E0,1.317844528E1,2.844654510E1,2.865042114E0,3.148151545E1
1.680918708E0,1.387749161E1,3.060550552E1,-4.595443726E-2,3.360481890E1
1.690922708E0,1.462383957E1,3.133868088E1,-1.017434235E0,3.459775680E1
1.700927708E0,1.443867462E1,3.003459274E1,2.115101624E-1,3.332561811E1
1.710931708E0,1.349623444E1,2.738929367E1,-5.399272156E-1,3.053871761E1
1.720936708E0,1.165670975E1,2.429567688E1,-8.442443848E-1,2.696055537E1
1.730940708E0,9.528285828E0,2.127196472E1,1.535806274E-1,2.330897469E1
1.740945708E0,7.729775848E0,1.753708145E1,1.382974091E0,1.921487127E1
1.750949708E0,5.762267303E0,1.246981888E1,5.051994324E0,1.463635043E1
1.760954708E0,4.001927948E0,6.811884613E0,1.013841705E1,1.285319803E1
1.770958708E0,2.964734802E0,3.736080780E0,9.848619690E0,1.094272644E1
1.780963708E0,2.005230103E0,8.515791321E-1,1.263717087E1,1.282358071E1
1.790967708E0,2.098635864E0,-1.049168243E0,1.167437302E1,1.190781306E1
1.800972708E0,2.801125031E0,5.680686951E-1,1.165177002E0,3.086525705E0
1.810976708E0,1.611399078E0,3.168910217E-1,-2.960393829E0,3.385403748E0
1.820981708E0,3.755690002E-1,-5.415737915E-1,-2.995870056E0,3.067505768E0
1.830985708E0,-1.414558411E-1,-9.174421692E-1,-2.929857330E0,3.073397772E0
1.840990708E0,-5.932164001E-1,-1.042881317E0,-2.163900146E0,2.474261705E0
1.850994708E0,-7.822732544E-1,-1.163680115E0,-1.916315002E0,2.374524382E0
1.860999708E0,-9.434880066E-1,-1.363364868E0,-2.204166412E0,2.758130337E0
1.871003708E0,-1.045875092E0,-1.613943787E0,-2.551893311E0,3.195438737E0
1.881008708E0,-1.073118439E0,-1.818268890E0,-2.857557678E0,3.552931300E0
1.891013708E0,-1.050814819E0,-1.877395935E0,-2.831212463E0,3.555923410E0
1.901017708E0,-9.327104187E-1,-1.807491302E0,-2.548899536E0,3.260960346E0
1.911022708E0,-8.411009216E-1,-1.764231262E0,-2.331701202E0,3.042497856E0
1.921026708E0,-6.999444580E-1,-1.816322937E0,-2.120789795E0,2.878662990E0
1.931031708E0,-5.635780334E-1,-1.788181458E0,-1.909129944E0,2.675815813E0
1.941035708E0,-4.441264343E-1,-1.767973480E0,-1.711091766E0,2.500162705E0
1.951040708E0,-5.122348022E-1,-1.760339355E0,-1.633553009E0,2.455539568E0
1.961044708E0,-6.086343384E-1,-1.818119202E0,-1.754351807E0,2.598796539E0
1.971049708E0,-7.735913086E-1,-1.835483093E0,-1.805096283E0,2.688087478E0
1.981053708E0,-9.732760620E-1,-1.877845001E0,-1.757195892E0,2.749782818E0
1.991058708E0,-1.219214630E0,-1.878294067E0,-1.709295502E0,2.817119811E0
2.001062708E0,-1.530417480E0,-1.817370758E0,-1.683698730E0,2.912019154E0
2.011067708E0,-1.558858337E0,-1.294208679E0,-1.598974915E0,2.581033940E0
2.021071708E0,-1.410367126E0,-6.267466736E-1,-1.571731567E0,2.202790717E0
2.031076708E0,-1.553619232E0,-2.206411743E-1,-1.630559235E0,2.262993297E0
2.041080708E0,-1.678010559E0,1.743873596E-1,-1.728455658E0,2.415303159E0
2.051085708E0,-1.797162781E0,4.668791199E-1,-1.770667877E0,2.565742564E0
2.061089708E0,-1.941612396E0,5.718109131E-1,-1.793869629E0,2.704587707E0
2.071094708E0,-2.185305634E0,3.986210632E-1,-1.934726715E0,2.945781208E0
2.081098708E0,-2.441572723E0,2.649490356E-2,-1.965412903E0,3.134458043E0
2.091103708E0,-2.591560822E0,-3.185375977E-1,-1.695973206E0,3.113515506E0
2.101107708E0,-2.556833038E0,-5.668711853E-1,-1.311871948E0,2.929120369E0
2.111112708E0,-2.420316925E0,-7.679031372E-1,-9.057664490E-1,2.695926947E0
2.121116708E0,-2.157762909E0,-9.168434143E-1,-5.400769043E-1,2.405873164E0
2.131121708E0,-1.870510254E0,-9.988728333E-1,-2.097138977E-1,2.130853225E0
2.141125708E0,-1.513802032E0,-1.008901978E0,-4.086502075E-2,1.819656491E0
2.151130708E0,-1.183139648E0,-9.735754395E-1,4.819976807E-2,1.532968291E0
2.161134708E0,-9.735754395E-1,-9.104067993E-1,1.255888367E-1,1.338828679E0
2.171139708E0,-8.280780029E-1,-8.223898315E-1,1.678010559E-1,1.179065481E0
2.181143708E0,-6.960525513E-1,-7.065307617E-1,2.279759216E-1,1.017667869E0
2.191148708E0,-5.767506409E-1,-5.963598633E-1,3.001258850E-1,8.822482276E-1
2.201152708E0,-4.547543335E-1,-5.047503662E-1,3.159928894E-1,7.492836193E-1
2.211157708E0,-3.429368591E-1,-4.367916870E-1,3.243754578E-1,6.431268186E-1
2.221161708E0,-2.188449097E-1,-3.849993896E-1,2.978805542E-1,5.337138270E-1
2.231166708E0,-5.388793945E-2,-2.787203979E-1,3.174897766E-1,4.258975563E-1
2.241170708E0,1.418300629E0,8.716374207E-1,2.087259521E0,2.669827855E0
2.251175708E0,6.198011169E0,6.772815857E0,1.009410919E1,1.364468459E1
2.261180708E0,2.609224091E0,6.901697845E0,9.745484161E0,1.222358151E1
2.271184708E0,-4.558021545E-1,2.759361877E0,4.775668945E0,5.534333515E0
2.281189708E0,3.037483521E0,1.493309647E1,2.562640961E1,2.981503892E1
2.291193708E0,1.208616669E1,3.739388901E1,7.218424210E1,8.218846128E1
2.301198708E0,9.436676331E0,3.035507629E1,2.860955612E1,4.276667182E1
2.311202708E0,8.512797546E-1,3.607722702E1,-1.511197449E1,3.912368540E1
2.321207708E0,-3.716172180E0,5.173466721E1,-1.300585419E1,5.347371288E1
2.331211708E0,-9.654922485E-1,6.314918060E1,-2.094264954E1,6.653830292E1
2.341216708E0,9.600435791E0,6.301161667E1,-1.195758408E1,6.485072104E1
2.351220708E0,1.481035172E1,4.031341782E1,3.134691376E1,5.317092416E1
2.361225708E0,1.100975510E1,1.918665115E1,1.667083282E1,2.769943965E1
2.371229500E0,1.136002670E1,1.710986984E1,-7.127278748E0,2.173927218E1
2.381234500E0,1.128563141E1,1.641651169E1,-3.234623566E0,2.018242111E1
2.391238500E0,1.102173019E1,1.046907944E1,6.135141907E0,1.639268517E1
2.401243500E0,1.161030624E1,7.452702026E0,8.863667908E0,1.639837148E1
2.411247500E0,1.093371323E1,9.515562286E0,2.306104431E0,1.467685689E1
2.421252500E0,9.219927063E0,1.197554672E1,1.309776306E-1,1.511416321E1
2.431256500E0,9.247170410E0,1.370939117E1,3.940854950E0,1.699964425E1
2.441261500E0,8.547076263E0,1.495195724E1,7.553143158E0,1.880594347E1
2.451265500E0,4.093238068E0,1.496048950E1,6.601272583E0,1.685667950E1
2.461270500E0,8.918453979E-1,1.353904541E1,5.184019775E0,1.452498537E1
2.471274500E0,-6.213578796E-1,1.134206406E1,4.668192444E0,1.228090076E1
2.481279500E0,-1.134790192E0,9.698631592E0,4.677024078E0,1.082708445E1
2.491283500E0,-1.155746613E0,8.811875610E0,4.716541901E0,1.006134531E1
2.501288500E0,-9.059161377E-1,8.140372009E0,4.364773407E0,9.281033746E0
2.511292500E0,-5.108876038E-1,7.315437469E0,3.137774963E0,7.976356514E0
2.521297500E0,8.981323242E-2,6.649172974E0,1.334624634E0,6.782388264E0
2.531301500E0,7.286846924E-1,6.124214630E0,-2.016307068E-1,6.170708319E0
2.541306500E0,1.202299805E0,5.752687225E0,-1.098715210E0,5.978805085E0
2.551310500E0,1.463806000E0,5.794300690E0,-1.329235840E0,6.122378329E0
2.561315500E0,1.551523590E0,5.917344818E0,-1.276096344E0,6.249049290E0
2.571319500E0,1.500180359E0,6.237828369E0,-8.666976929E-1,6.473963914E0
2.581324500E0,1.423988800E0,6.415658569E0,-3.974235535E-1,6.583795597E0
2.591328500E0,1.271905060E0,6.442153473E0,-1.067280579E-1,6.567379594E0
2.601333500E0,1.040486298E0,6.076613617E0,1.041833496E-1,6.165930502E0
2.611337500E0,8.514294434E-1,5.377716980E0,2.802172852E-1,5.451907349E0
2.621342500E0,7.417076111E-1,4.602479095E0,2.589614868E-1,4.669047553E0
2.631346500E0,7.466473389E-1,3.740272064E0,-1.841171265E-2,3.814112787E0
2.641351500E0,8.110134888E-1,2.993774414E0,-1.118174744E-1,3.103696388E0
2.651356500E0,7.828720093E-1,2.317181396E0,-8.741821289E-2,2.447419080E0
2.661360500E0,4.799020386E-1,1.258433075E0,3.417393494E-1,1.389512704E0
2.671365500E0,3.906875610E-2,1.475930786E-1,1.640887756E0,1.647975338E0
2.681369500E0,-8.095166016E-1,-6.134243774E-1,3.544628906E0,3.687275509E0
2.691374500E0,-1.641486511E0,1.328337708E0,4.284091187E0,4.776232441E0
2.701378500E0,-6.039939880E-1,4.703369293E0,2.535726929E0,5.377397373E0
2.711383500E0,3.028202820E-1,7.222480774E0,1.155596924E-1,7.229749836E0
2.721387500E0,8.217910767E-1,1.078866486E1,-1.068178711E0,1.087251745E1
2.731392500E0,8.165519714E-1,1.495944168E1,-1.077010345E0,1.502037296E1
2.741396500E0,3.493734741E-1,1.866573441E1,4.981640625E-1,1.867564912E1
2.751401500E0,-1.895059204E-1,2.186577988E1,3.923341370E0,2.221577929E1
2.761405500E0,-4.939727783E-3,1.977283218E1,5.797593842E0,2.060526659E1
2.771410500E0,1.059197388E0,1.483669693E1,4.142036591E0,1.544039967E1
2.781414500E0,1.700463867E0,1.192480225E1,2.174528046E0,1.224014127E1
2.791419500E0,1.773362274E0,1.028765671E1,1.346599731E0,1.052587408E1
2.801423500E0,1.859283600E0,8.885372772E0,2.017953644E0,9.299404374E0
2.811428500E0,2.112856293E0,7.208709412E0,3.666475525E0,8.358988926E0
2.821432500E0,2.407892761E0,5.661077728E0,5.952821045E0,8.560480535E0
2.831437500E0,1.733844452E0,5.511838074E0,7.160809021E0,9.201291288E0
2.841441500E0,2.113604736E-1,7.122488708E0,6.646777954E0,9.744443331E0
2.851446500E0,-5.334906006E-1,8.714877319E0,5.942791901E0,1.056174581E1
2.861450500E0,-8.698411560E-1,1.004905289E1,4.819827118E0,1.117903489E1
2.871455500E0,-1.168769531E0,1.085153412E1,3.253634033E0,1.138893978E1
2.881459500E0,-1.485510864E0,1.022224274E1,1.579365692E0,1.044965957E1
2.891464500E0,-1.465003510E0,9.220226440E0,5.041516113E-1,9.349490881E0
2.901468500E0,-1.274749146E0,9.150621185E0,-7.259902954E-2,9.239270755E0
2.911473500E0,-8.653504944E-1,9.618099060E0,-4.507127380E-1,9.667461041E0
2.921477500E0,-1.499880981E-1,1.018047958E1,-5.432203674E-1,1.019606539E1
2.931482500E0,9.024732971E-1,1.048255142E1,-2.068698120E-1,1.052336151E1
2.941486500E0,1.905088348E0,1.005863297E1,4.550537109E-1,1.024756228E1
2.951491500E0,2.425855408E0,8.454119568E0,4.348457336E-1,8.806020835E0
2.961495500E0,2.417472839E0,7.012168121E0,-2.091151428E-1,7.420135163E0
2.971500500E0,2.232457581E0,6.656956787E0,-9.620494080E-1,7.086923139E0
2.981504500E0,2.042502594E0,6.721023560E0,-1.382225647E0,7.159226374E0
2.991509500E0,1.872306519E0,6.936126251E0,-1.016835480E0,7.255986044E0
3.001514500E0,2.144889679E0,7.051985321E0,5.792953491E-2,7.371187458E0
3.011518500E0,2.720293121E0,6.902446289E0,1.937870178E0,7.668057138E0
3.021523500E0,3.775149536E0,6.653064880E0,5.106031952E0,9.197096749E0
3.031527500E0,4.575535126E0,6.383176117E0,8.162226562E0,1.132706500E1
3.041532500E0,3.367098083E0,6.126010895E0,7.372917938E0,1.015998415E1
3.051536500E0,1.833387451E0,6.017636261E0,4.087549896E0,7.502087701E0
3.061541500E0,1.412163391E0,6.363716583E0,1.272653503E0,6.641591762E0
3.071545500E0,9.732760620E-1,7.208410034E0,9.639953613E-2,7.274457669E0
3.081550500E0,6.297404480E-1,8.091124420E0,2.815644836E-1,8.120476955E0
3.091554500E0,6.420149231E-1,8.918603668E0,1.434467010E0,9.056012928E0
3.101559500E0,-3.453318787E-1,1.052940399E1,2.981200562E0,1.094875150E1
3.111563500E0,-2.376757507E0,1.178364578E1,3.876189423E0,1.263044451E1
3.121568500E0,-3.879931641E0,1.127994324E1,3.863016815E0,1.253849624E1
3.131572500E0,-4.303999786E0,1.022867935E1,4.979844360E0,1.216343477E1
3.141577500E0,-3.435356140E0,9.277856598E0,5.612728271E0,1.137466542E1
3.151581500E0,-1.969903564E0,8.177345123E0,4.229454803E0,9.414764004E0
3.161586500E0,-1.288819885E-1,6.752009125E0,2.056723022E0,7.059486340E0
3.171590500E0,1.205443268E0,5.339396667E0,1.267863464E-1,5.475246572E0
3.181595500E0,2.231110382E0,4.322710876E0,-1.853745117E0,5.205771203E0
3.191599500E0,3.064876556E0,4.187392273E0,-3.373834076E0,6.189545922E0
3.201604500E0,3.590134277E0,5.062622223E0,-3.746409302E0,7.249468295E0
3.211608500E0,4.954247589E0,7.091652832E0,1.354682922E-1,8.651847243E0
3.221613500E0,8.727002106E0,1.101873642E1,9.894125061E0,1.718914858E1
3.231617500E0,1.007270370E1,1.529175064E1,4.816683655E0,1.893402860E1
3.241622500E0,9.871971130E0,1.915177368E1,-5.258415070E0,2.217875511E1
3.251626500E0,1.228869553E1,2.313229614E1,-2.758314056E0,2.633863055E1
3.261631500E0,1.373124573E1,2.301943085E1,4.842280426E0,2.723763913E1
3.271635500E0,1.180789536E1,1.669403458E1,3.762425995E0,2.079117680E1
3.281640500E0,1.160446838E1,9.506580963E0,3.942351837E0,1.551067072E1
3.291644500E0,9.000333710E0,4.477489014E0,5.309758301E0,1.136870476E1
3.301649500E0,3.250191193E0,4.609664154E0,4.597838745E0,7.276872098E0
3.311653500E0,1.854643250E-1,7.687264252E0,5.838309174E0,9.654754409E0
3.321658500E0,-8.017327881E-1,1.098879868E1,6.779701538E0,1.293680118E1
3.331662500E0,-1.138233032E0,1.421084839E1,6.314319305E0,1.559212669E1
3.341667500E0,-6.661148071E-1,1.744337631E1,5.813161469E0,1.839858506E1
3.351671500E0,1.571731567E0,2.006966492E1,5.109624481E0,2.076944998E1
3.361676500E0,6.754853210E0,2.071377548E1,6.107299805E0,2.262714404E1
3.371683875E0,1.107546844E1,2.108769791E1,7.251520386E0,2.489862551E1
3.381688875E0,1.343980179E1,2.177656540E1,7.963739319E0,2.680052642E1
3.391692875E0,1.425919785E1,2.327105759E1,6.508315887E0,2.805753054E1
3.401697875E0,1.417641998E1,2.574765747E1,4.494703217E0,2.973407314E1
3.411701875E0,1.292831543E1,2.804672653E1,3.610641632E0,3.109335849E1
3.421706875E0,1.067984116E1,2.937057358E1,1.704206085E0,3.129846510E1
3.431711875E0,8.809929657E0,2.906670547E1,-5.971083069E-1,3.037836016E1
3.441715875E0,7.822882233E0,2.862512375E1,-1.367556152E0,2.970631929E1
3.451720875E0,7.778574371E0,2.817994949E1,-1.942061462E0,2.929824868E1
3.461724875E0,8.361611938E0,2.792278427E1,-2.628084869E0,2.926611122E1
3.471729875E0,7.864346008E0,2.617876099E1,-1.486708374E0,2.737491126E1
3.481733875E0,7.191195831E0,2.364228561E1,-3.128494263E-1,2.471373791E1
3.491738875E0,5.999224548E0,1.998658768E1,1.280287628E0,2.090678164E1
3.501742875E0,4.373155975E0,1.450154388E1,4.444258118E0,1.578514170E1
3.511747875E0,2.717748413E0,7.242988129E0,1.316781738E1,1.527214615E1
3.521751875E0,9.728269958E-1,6.457571411E-1,2.299877380E1,2.302839532E1
3.531756875E0,1.468446350E-1,-2.396516418E0,2.849609207E1,2.859706484E1
3.541760875E0,1.358574829E0,9.003776550E-1,9.505982208E0,9.644693009E0
3.551765875E0,2.216740265E0,3.085683289E0,-4.479135590E0,5.873502736E0
3.561769875E0,1.293460236E0,2.163750458E0,-6.407874756E0,6.885906935E0
3.571774875E0,1.275347900E-1,6.665638733E-1,-6.122418365E0,6.159917139E0
3.581778875E0,-6.667135620E-1,-8.488847351E-1,-4.937931519E0,5.054530636E0
3.591783875E0,-8.671467590E-1,-1.357976074E0,-3.658991089E0,3.998031804E0
3.601787875E0,-8.292755127E-1,-1.499581604E0,-3.109633484E0,3.550529998E0
3.611792875E0,-7.219487000E-1,-1.584904175E0,-3.142415314E0,3.592757322E0
3.621796875E0,-5.321434021E-1,-1.564247131E0,-2.824925537E0,3.272651827E0
3.631801875E0,-4.950205994E-1,-1.460812225E0,-2.381697235E0,2.837516427E0
3.641805875E0,-5.065466309E-1,-1.389410706E0,-2.193837891E0,2.645746830E0
3.651810875E0,-5.155279541E-1,-1.432371368E0,-2.144290924E0,2.629722490E0
3.661814875E0,-5.727090454E-1,-1.540895691E0,-2.262694702E0,2.796809342E0
3.671819875E0,-7.688012695E-1,-1.775008850E0,-2.473905487E0,3.140369432E0
3.681823875E0,-1.016236725E0,-2.032323761E0,-2.669548645E0,3.505647860E0
3.691828875E0,-1.163829803E0,-2.132315826E0,-2.512225800E0,3.494645771E0
3.701832875E0,-1.328038330E0,-2.121089172E0,-2.213896179E0,3.341263440E0
3.711837875E0,-1.540746002E0,-2.080822906E0,-1.982776794E0,3.261154094E0
3.721841875E0,-1.793570251E0,-1.872007141E0,-1.753303986E0,3.129757155E0
3.731846875E0,-1.961520996E0,-1.442550201E0,-1.548080750E0,2.885319689E0
3.741850875E0,-1.904639282E0,-8.536747742E-1,-1.628313904E0,2.647228283E0
3.751855875E0,-1.775757294E0,-3.588038635E-1,-1.797013092E0,2.551726912E0
3.761859875E0,-1.745071106E0,2.589614868E-2,-1.836381226E0,2.533424517E0
3.771864875E0,-1.751058655E0,2.797682190E-1,-1.903741150E0,2.601673891E0
3.781868875E0,-1.863624573E0,3.776646423E-1,-1.928290100E0,2.708141400E0
3.791873875E0,-1.992805939E0,4.465214539E-1,-1.789977722E0,2.715635683E0
3.801878875E0,-2.081571350E0,4.974156189E-1,-1.649420013E0,2.702026640E0
3.811882875E0,-2.153272247E0,4.921765137E-1,-1.525777130E0,2.684551162E0
3.821887875E0,-2.185904388E0,3.164419556E-1,-1.196611633E0,2.512009735E0
3.831891875E0,-2.111060028E0,-5.388793945E-3,-8.523275757E-1,2.276634748E0
3.841896875E0,-2.073338470E0,-4.240681458E-1,-6.092330933E-1,2.202210518E0
3.851900875E0,-2.043251038E0,-8.324189758E-1,-4.029620361E-1,2.242805064E0
3.861905875E0,-1.835333405E0,-1.082099762E0,-2.332150269E-1,2.143310022E0
3.871909875E0,-1.527723083E0,-1.193168793E0,-1.049317932E-1,1.941288301E0
3.881914875E0,-1.214873657E0,-1.161883850E0,-1.047821045E-3,1.681039316E0
3.891918875E0,-9.369017029E-1,-9.901908875E-1,7.574249268E-2,1.365283751E0
3.901923875E0,-7.045848083E-1,-8.144563293E-1,1.486408997E-1,1.087139817E0
3.911927875E0,-5.072950745E-1,-6.906637573E-1,1.812730408E-1,8.759135994E-1
3.921932875E0,-3.698808289E-1,-6.092330933E-1,1.824705505E-1,7.357120981E-1
3.931936875E0,-2.633024597E-1,-5.551954651E-1,1.871109009E-1,6.423244344E-1
3.941941875E0,-1.947450256E-1,-4.887336731E-1,1.863624573E-1,5.581372535E-1
3.951945875E0,-1.297801208E-1,-4.185296631E-1,2.073188782E-1,4.847587811E-1
3.961950875E0,1.985770569E0,7.173083496E-1,1.826052704E0,2.791466371E0
3.971954875E0,5.236261139E0,2.869981842E0,3.651806030E0,6.999350954E0
3.981959875E0,2.287243652E0,2.035766602E0,2.168091431E0,3.751859490E0
3.991963875E0,-1.953437805E-1,5.559439087E-1,7.017407227E-1,9.163366543E-1
4.001968875E0,-7.908055115E-1,1.646575928E-1,3.177891541E-1,8.680296229E-1
4.011972875E0,-7.702981567E-1,4.511618042E-1,4.442761230E-1,9.971396579E-1
4.021977875E0,-6.827302551E-1,7.656578064E-1,8.455915833E-1,1.329427547E0
4.031981875E0,4.941224670E-1,4.207749939E0,6.023174744E0,7.363962965E0
4.041986875E0,-1.326242065E-1,1.015548157E1,1.289538391E1,1.641469833E1
4.051990875E0,2.283651123E0,2.156685150E1,4.361644913E1,4.871076658E1
4.061995875E0,5.337151337E0,2.261362473E1,5.421096771E1,5.898042241E1
4.071999875E0,3.051404572E0,1.441831696E1,8.243357849E-1,1.476070673E1
4.082004875E0,6.033203888E0,2.510923508E1,-5.707930298E0,2.644718706E1
4.092008875E0,7.082372131E0,5.141118988E1,1.323712326E1,5.355830348E1
4.102013875E0,1.681932404E1,7.873626709E1,3.501982590E1,8.779907529E1
4.112017875E0,1.811892151E1,7.701065552E1,-5.120701447E0,7.927898816E1
4.122022875E0,1.137275024E1,4.745267166E1,-2.392504761E1,5.434614429E1
4.132026875E0,6.237828369E0,1.616997437E1,-1.323353073E1,2.180607506E1
4.142031875E0,3.513643341E0,5.607788544E0,-2.155517578E0,6.959830307E0
4.152035875E0,1.620230713E0,2.915936279E-1,1.782193909E0,2.426188273E0
4.162040875E0,8.506809998E-1,-3.540737000E0,4.554129639E0,5.831001066E0
4.172044875E0,8.901988220E-1,-3.216810608E0,2.479443970E0,4.157880088E0
4.182049875E0,7.622149658E-1,-1.957180023E0,-4.090992737E-1,2.139833525E0
4.192054875E0,6.385720825E-1,-2.011816406E0,-1.029409332E0,2.348374572E0
4.202058875E0,8.303233337E-1,-2.887196045E0,2.649490356E-1,3.015880606E0
4.212063875E0,1.432970123E0,-5.623356171E0,9.032367096E0,1.073588345E1
4.222067875E0,3.883973236E0,-5.714516602E0,1.437011719E1,1.594494328E1
4.232072875E0,7.506440277E0,-1.032103729E0,4.030368805E0,8.582293193E0
4.242076875E0,1.216340607E1,2.586920471E0,2.110610962E0,1.261329788E1
4.252081875E0,1.701077591E1,4.387526093E0,6.715335388E0,1.880724891E1
4.262085875E0,1.970187973E1,5.203928375E0,6.030060425E0,2.125103678E1
4.272090875E0,2.178524734E1,5.206922150E0,3.609743500E0,2.268786654E1
4.282094875E0,2.433549408E1,4.681514740E0,4.332290955E0,2.515753560E1
4.292099875E0,2.416185516E1,3.292104034E0,4.604724426E0,2.481605692E1
4.302103875E0,2.199915253E1,1.252445526E0,4.055067444E0,2.240479644E1
4.312108875E0,1.904744064E1,8.399034119E-1,5.947132874E0,1.997195089E1
4.322112875E0,1.377196106E1,2.185155945E0,6.883286133E0,1.555060918E1
4.332117875E0,1.077713882E1,2.675087128E0,6.742279358E0,1.299080996E1
4.342121875E0,9.095984802E0,2.733166351E0,6.198909302E0,1.134167599E1
4.352126875E0,7.998467102E0,3.011287994E0,6.733597412E0,1.088047175E1
4.362130875E0,7.686964874E0,3.497926025E0,6.867718506E0,1.088533293E1
4.372132083E0,7.733218689E0,4.049678650E0,7.337741089E0,1.140372802E1
4.382136083E0,7.821085968E0,4.824617157E0,8.041577454E0,1.221119504E1
4.392141083E0,8.181536407E0,5.600453796E0,7.090155945E0,1.218904968E1
4.402145083E0,8.896449738E0,6.671027527E0,6.484515381E0,1.287238773E1
4.412150083E0,9.864935760E0,8.267308044E0,6.528523865E0,1.443215035E1
4.422154083E0,1.071426956E1,1.006761429E1,5.390739899E0,1.565926264E1
4.432159083E0,1.152258865E1,1.204410416E1,3.655847626E0,1.706445768E1
4.442163083E0,1.283895126E1,1.575608505E1,1.757046204E0,2.040049257E1
4.452168083E0,1.598211502E1,2.407773010E1,8.809181213E-1,2.891264609E1
4.462172083E0,1.868953491E1,3.198353989E1,2.406246185E0,3.712190135E1
4.472177083E0,1.927676376E1,3.446133728E1,1.050515442E0,3.950039204E1
4.482181083E0,1.836770416E1,3.165422470E1,-2.218087463E0,3.666445703E1
4.492186083E0,1.653132294E1,2.704935059E1,-1.433419189E0,3.173336881E1
4.502190083E0,1.598825226E1,2.324620926E1,9.550140381E-1,2.822981592E1
4.512195083E0,1.493953308E1,1.993748978E1,1.938768311E0,2.498903699E1
4.522199083E0,1.375833939E1,1.799752396E1,3.312910767E0,2.289493719E1
4.532204083E0,1.253059250E1,1.692739929E1,2.666405182E0,2.122880853E1
4.542208083E0,1.054347473E1,1.438299042E1,2.383044434E0,1.799205862E1
4.552213083E0,7.528743896E0,9.334588623E0,6.924450531E0,1.384790759E1
4.562217083E0,4.679868164E0,5.104684753E0,9.150022430E0,1.147527267E1
4.572222083E0,3.009940796E0,4.415817261E0,3.629352722E0,6.459983503E0
4.582226083E0,6.256988525E-2,1.081800385E0,6.357579346E0,6.449265245E0
4.592231083E0,-2.025138702E0,-1.661245422E0,7.378007355E0,7.829170815E0
4.602235083E0,-1.210532684E0,-1.008901978E0,-7.708969116E-2,1.577724754E0
4.612240083E0,-1.154998169E0,-9.800120544E-1,-2.979104919E0,3.342081764E0
4.622244083E0,-1.380878448E0,-1.232536926E0,-2.475402374E0,3.090888138E0
4.632249083E0,-1.346000977E0,-1.233884125E0,-1.845512238E0,2.596171042E0
4.642254083E0,-1.251547394E0,-1.299298096E0,-1.629212036E0,2.430818438E0
4.652258083E0,-1.197360077E0,-1.458117828E0,-1.816921692E0,2.619347856E0
4.662263083E0,-1.274749146E0,-1.844015350E0,-2.067500610E0,3.049579769E0
4.672267083E0,-1.292113037E0,-2.248174896E0,-2.469265137E0,3.580658708E0
4.682272083E0,-1.375339966E0,-2.482737122E0,-3.057541809E0,4.171822809E0
4.692276083E0,-1.365759888E0,-2.926713867E0,-3.417842560E0,4.702403842E0
4.702281083E0,-1.488354950E0,-3.218157806E0,-3.465443573E0,4.957926914E0
4.712285083E0,-1.772763519E0,-3.241509247E0,-3.281326447E0,4.941373892E0
4.722290083E0,-1.769021301E0,-3.255130920E0,-3.138822784E0,4.855669073E0
4.732294083E0,-1.796863403E0,-3.274141388E0,-3.215912476E0,4.928571088E0
4.742299083E0,-1.868564301E0,-3.196452942E0,-3.196452942E0,4.891436943E0
4.752303083E0,-1.897154846E0,-3.091970215E0,-3.046764221E0,4.737325041E0
4.762308083E0,-2.027384033E0,-2.874173126E0,-2.703677673E0,4.436330707E0
4.772312083E0,-2.038460999E0,-2.653531952E0,-2.681523743E0,4.288021064E0
4.782317083E0,-1.887724457E0,-2.136357422E0,-3.036286011E0,4.164920095E0
4.792321083E0,-1.743723907E0,-1.510059814E0,-3.347937927E0,4.065653954E0
4.802326083E0,-1.665586395E0,-1.025068359E0,-3.573369141E0,4.073562347E0
4.812330083E0,-1.529669037E0,-6.313870239E-1,-3.865112457E0,4.204477523E0
4.822335083E0,-1.308578796E0,-2.778222656E-1,-3.339555359E0,3.597526049E0
4.832339083E0,-1.024170227E0,-1.031355286E-1,-2.228116608E0,2.454397117E0
4.842344083E0,-8.378077698E-1,-9.011260986E-2,-1.384770355E0,1.620996940E0
4.852348083E0,-7.229965210E-1,-1.645079041E-1,-8.515791321E-1,1.129147394E0
4.862353083E0,-6.096821594E-1,-2.697390747E-1,-4.543052673E-1,8.067619103E-1
4.872357083E0,-5.336402893E-1,-3.719764709E-1,-6.840774536E-2,6.540780328E-1
4.882362083E0,-5.019062805E-1,-4.114942932E-1,1.462458801E-1,6.653009283E-1
4.892366083E0,-5.059478760E-1,-4.061054993E-1,2.498304749E-1,6.952123387E-1
4.902371083E0,-5.260061646E-1,-3.915856934E-1,2.927911377E-1,7.181563136E-1
4.912375083E0,-5.560935974E-1,-4.104464722E-1,3.285667419E-1,7.652858940E-1
4.922380083E0,-5.902226257E-1,-3.989204407E-1,3.858975220E-1,8.101957562E-1
4.932384083E0,-6.451583862E-1,-3.993695068E-1,4.061054993E-1,8.606085189E-1
4.942389083E0,-6.607260132E-1,-4.233197021E-1,3.212319946E-1,8.479082669E-1
4.952394083E0,-5.686674500E-1,-3.743714905E-1,2.085163879E-1,7.120503954E-1
4.962398083E0,-4.656816101E-1,-3.038681030E-1,1.203497314E-1,5.689281535E-1
4.972403083E0,-3.517684937E-1,-1.345701599E-1,2.279759216E-1,4.402535882E-1
4.982407083E0,3.429368591E-1,1.131946106E0,2.050585785E0,2.367236730E0
4.992412083E0,1.763782196E0,2.804418182E0,3.743116150E0,4.998660569E0
5.002416083E0,1.009500732E0,1.756896515E0,2.423610077E0,3.159060445E0
5.012421083E0,-2.133064270E-1,4.463717651E-1,7.599696350E-1,9.068082656E-1
5.022425083E0,-6.957531738E-1,8.801696777E-2,2.938389587E-1,7.603688573E-1
5.032430083E0,-7.400610352E-1,2.204914856E-1,4.418811035E-1,8.896998037E-1
5.042434083E0,-6.604266357E-1,3.841012573E-1,5.691165161E-1,9.526755618E-1
5.052439083E0,-5.230123901E-1,5.165757751E-1,8.714877319E-1,1.140124273E0
5.062443083E0,-2.384541321E-1,8.225395203E-1,1.963616638E0,2.142246937E0
5.072448083E0,7.911048889E-1,2.723885651E0,7.051685944E0,7.600768029E0
5.082452083E0,3.607797546E0,1.187375839E1,3.081282440E1,3.321795432E1
5.092457083E0,7.552095337E0,3.815939713E1,6.967171692E1,7.979550032E1
5.102461083E0,4.523593140E0,4.651936249E1,2.771486664E1,5.433808806E1
5.112466083E0,1.705702972E0,4.401372299E1,-1.950114716E1,4.817065470E1
5.122470083E0,6.334676971E0,6.005047440E1,-3.141876434E1,6.806854164E1
5.132475083E0,1.627041550E1,6.145620117E1,-3.273198349E1,7.150506154E1
5.142479083E0,3.853092453E1,4.809812943E1,3.303764786E1,6.992530569E1
5.152484083E0,3.404654984E1,3.072735214E1,3.657778610E1,5.866235728E1
5.162488083E0,1.507140884E1,2.096869537E1,-1.852397919E1,3.178004649E1
5.172493083E0,8.706943817E0,9.584119720E0,-6.930138702E0,1.468649188E1
5.182497083E0,6.894512787E0,-1.782792664E-1,1.398751282E1,1.559540333E1
5.192502083E0,8.270002441E0,6.782395935E-1,7.616760864E0,1.126356939E1
5.202506083E0,1.212703171E1,3.052901459E0,7.562274170E-1,1.252824749E1
5.212511083E0,1.717378693E1,4.254452820E0,7.711513824E0,1.930043449E1
5.222515083E0,1.694700851E1,6.978488159E0,9.576635284E0,2.067878957E1
5.232520083E0,1.312171326E1,8.369994507E0,5.698948975E0,1.657450410E1
5.242525083E0,8.543184357E0,7.719597015E0,3.726949768E0,1.210241016E1
5.252529083E0,4.808600464E0,6.222410431E0,4.308490448E0,8.966834443E0
5.262534083E0,2.787503357E0,4.507726135E0,4.362827454E0,6.864694696E0
5.272538083E0,1.980381775E0,2.770438843E0,3.929478607E0,5.199812062E0
5.282543083E0,2.318079529E0,1.483564911E0,2.858156433E0,3.967809943E0
5.292547083E0,4.540507965E0,1.818717957E-1,3.712579651E0,5.867924471E0
5.302552083E0,8.687783661E0,4.174818420E-1,5.156027985E0,1.011120668E1
5.312556083E0,1.220561829E1,2.187251587E0,5.314548340E0,1.349094553E1
5.322561083E0,1.477038483E1,3.876937866E0,4.130061493E0,1.581936544E1
5.332565083E0,1.673474991E1,5.262606354E0,4.701423340E0,1.816178024E1
5.342570083E0,1.771865387E1,5.769452362E0,6.468947754E0,1.972522650E1
5.352574083E0,1.603600296E1,7.435637512E0,6.546037445E0,1.884920960E1
5.362579083E0,1.306827438E1,1.060320053E1,6.187832336E0,1.793033535E1
5.372583500E0,1.209215424E1,1.336899902E1,5.192552032E0,1.875934235E1
5.382588500E0,1.177945450E1,1.568393509E1,4.468657379E0,2.011741203E1
5.392592500E0,1.185714294E1,1.801653442E1,4.168531494E0,2.196733954E1
5.402597500E0,1.224798019E1,1.985486160E1,3.335813141E0,2.356599664E1
5.412601500E0,1.261786102E1,2.080164276E1,2.438129883E0,2.445124201E1
5.422606500E0,1.346015945E1,2.205827957E1,8.292755127E-1,2.585403814E1
5.432610500E0,1.407073975E1,2.332120331E1,3.918850708E-1,2.724000394E1
5.442615500E0,1.521046967E1,2.447500397E1,3.796105957E-1,2.881888809E1
5.452619500E0,1.649165543E1,2.557880859E1,-3.975732422E-1,3.043695471E1
5.462624500E0,1.631397491E1,2.459849716E1,-1.376687164E0,2.954872430E1
5.472628500E0,1.517649033E1,2.255330017E1,-1.798210602E0,2.724354545E1
5.482633500E0,1.346015945E1,1.916419785E1,-4.068539429E-1,2.342238036E1
5.492637500E0,1.091590027E1,1.437805069E1,2.367027740E0,1.820681303E1
5.502642500E0,8.304580536E0,9.139843597E0,7.411088562E0,1.440232733E1
5.512646500E0,4.552782440E0,1.471440125E0,2.304308167E1,2.353458257E1
5.522651500E0,3.621868286E0,-5.967191162E0,4.361884415E1,4.417384820E1
5.532655500E0,7.241042175E0,-6.903643799E-1,1.588406891E1,1.747034458E1
5.542660500E0,6.185886383E0,-1.578617249E0,4.685406647E0,7.918980882E0
5.552664500E0,5.943540344E0,-7.822732544E-1,1.704954529E0,6.232535055E0
5.562669500E0,4.451293488E0,1.503174133E0,-5.501060486E-1,4.730344898E0
5.572674500E0,1.060993652E0,3.123554535E0,-1.716181183E0,3.718545188E0
5.582678500E0,-7.921527100E-1,2.682122498E0,-3.329825592E0,4.348450929E0
5.592683500E0,-1.254092102E0,1.222058716E0,-3.608396301E0,4.010822655E0
5.602687500E0,-2.124981079E0,-1.642085266E-1,-3.435505829E0,4.042920891E0
5.612692500E0,-2.365979919E0,-9.346563721E-1,-3.304228821E0,4.170056548E0
5.622696500E0,-2.292333069E0,-1.126707001E0,-3.061733093E0,3.987288439E0
5.632701500E0,-2.349364471E0,-1.328188019E0,-2.774480438E0,3.870573412E0
5.642705500E0,-2.611918488E0,-1.590742035E0,-2.280956726E0,3.815146392E0
5.652710500E0,-2.639311523E0,-1.579515381E0,-1.993853760E0,3.665554115E0
5.662714500E0,-2.120041351E0,-1.407373352E0,-1.676214294E0,3.047124783E0
5.672719500E0,-1.896556091E0,-1.441801758E0,-1.311422882E0,2.719475555E0
5.682723500E0,-1.871707764E0,-1.376387787E0,-1.327289886E0,2.675711445E0
5.692728500E0,-2.207908630E0,-1.426234131E0,-2.297272797E0,3.490912004E0
5.702732500E0,-2.519410858E0,-1.442699890E0,-3.385659485E0,4.459989259E0
5.712737500E0,-2.768792267E0,-1.286724243E0,-4.337829437E0,5.304586140E0
5.722741500E0,-3.000809784E0,-1.104403381E0,-5.436544647E0,6.307185100E0
5.732746500E0,-2.885699158E0,-7.339237976E-1,-5.047503662E0,5.860306902E0
5.742750500E0,-2.748733978E0,-4.743635559E-1,-3.885320435E0,4.782914817E0
5.752755500E0,-2.481988678E0,-3.121009827E-1,-2.800975342E0,3.755414449E0
5.762759500E0,-2.269430695E0,-1.675016785E-1,-2.332599335E0,3.258740884E0
5.772764500E0,-2.115101624E0,-3.742218018E-2,-1.807341614E0,2.782362127E0
5.782768500E0,-2.033072205E0,7.214996338E-2,-1.393452301E0,2.465825931E0
5.792773500E0,-1.985770569E0,9.565109253E-2,-1.246907043E0,2.346744779E0
5.802777500E0,-1.962119751E0,6.885681152E-2,-1.137185211E0,2.268886375E0
5.812782500E0,-1.920057220E0,1.410067749E-1,-1.061592407E0,2.198517928E0
5.822786500E0,-1.965861969E0,1.496887207E-2,-9.204359436E-1,2.170723307E0
5.832791500E0,-2.065554657E0,-1.344204712E-1,-7.355703735E-1,2.196735915E0
5.842795500E0,-2.025138702E0,-1.523831177E-1,-4.580474854E-1,2.081877729E0
5.852800500E0,-2.089953918E0,-2.335144043E-1,-3.772155762E-1,2.136522396E0
5.862805500E0,-2.074685669E0,-2.604583740E-1,-2.290237427E-1,2.103475948E0
5.872809500E0,-2.001038818E0,-2.183958435E-1,-9.056167603E-2,2.014957695E0
5.882814500E0,-1.988914032E0,-1.853146362E-1,-3.143463135E-3,1.997531082E0
5.892818500E0,-1.984872437E0,-1.134640503E-1,-6.122268677E-2,1.989055278E0
5.902823500E0,-1.931134186E0,-2.754272461E-2,-1.254391479E-1,1.935399913E0
5.912827500E0,-1.758243713E0,1.284329224E-1,-2.787203979E-1,1.784825210E0
5.922832500E0,-1.535506897E0,4.123924255E-1,-4.875361633E-1,1.662991417E0
5.932836500E0,-1.312321014E0,7.387138367E-1,-6.774911499E-1,1.651326387E0
5.942841500E0,-1.086440735E0,9.918374634E-1,-6.352789307E-1,1.602396438E0
5.952845500E0,-8.716374207E-1,1.142274628E0,-4.528083801E-1,1.506512047E0
5.962850500E0,-6.987469482E-1,1.389111328E0,-5.426216125E-1,1.646910985E0
5.972854500E0,-7.677534485E-1,1.871857452E0,-1.299896851E0,2.404792611E0
5.982859500E0,-9.952803040E-1,5.382956085E0,-2.686164093E0,6.097727169E0
5.992863500E0,1.591640167E0,2.163106796E1,-5.208568726E0,2.230617869E1
6.002868500E0,5.871989136E0,3.960314484E1,-8.537945251E0,4.093636338E1
6.012872500E0,1.820903412E1,5.551296021E1,1.725506790E1,6.091793695E1
6.022877500E0,3.893433563E1,6.276463028E1,6.393669296E1,9.768921134E1
6.032881500E0,3.068663681E1,5.045512802E1,2.803729614E1,6.537185631E1
6.042886500E0,1.624631561E1,4.967255539E1,-2.066931793E1,5.620076720E1
6.052890500E0,1.996742752E1,4.910673203E1,-1.845527206E1,5.613168765E1
6.062895500E0,2.537792633E1,4.205115417E1,-1.701212311E1,5.197837093E1
6.072899500E0,2.296733917E1,3.039504318E1,-1.033899994E1,3.947470378E1
6.082904500E0,1.686707474E1,2.036724609E1,-4.422702942E0,2.681199778E1
6.092908500E0,1.186851929E1,1.301513489E1,-8.213420105E-1,1.763320983E1
6.102913500E0,6.818620605E0,6.944359131E0,6.530320129E0,1.172018736E1
6.112917500E0,1.987267456E0,4.313280487E0,1.156569901E1,1.250276025E1
6.122922500E0,2.398911438E0,5.333858185E0,4.692591705E0,7.498348894E0
6.132927500E0,3.177143097E0,5.127138062E0,9.110055542E-1,6.100140497E0
6.142931500E0,3.245850220E0,4.167034607E0,2.139949951E0,5.699044381E0
6.152936500E0,3.692820740E0,2.155068512E0,1.087713089E1,1.168731029E1
6.162940500E0,4.205354919E0,3.002306671E0,5.556595001E0,7.587793049E0
6.172945500E0,5.061275024E0,4.844525757E0,-3.621119843E0,7.886598988E0
6.182949500E0,5.744604034E0,4.625830536E0,-4.729415131E0,8.761629480E0
6.192954500E0,5.750741272E0,2.865191803E0,-3.166215820E0,7.162769846E0
6.202958500E0,5.119503937E0,1.566193085E0,-2.003284149E0,5.716242535E0
6.212963500E0,4.275558929E0,1.658101959E0,-1.858684845E0,4.948172958E0
6.222967500E0,3.666475525E0,2.087409210E0,-1.678459625E0,4.540654876E0
6.232972500E0,3.219055939E0,2.181713104E0,-1.123264160E0,4.047704977E0
6.242976500E0,2.672093353E0,1.916315002E0,-6.572831726E-1,3.353262180E0
6.252981500E0,2.288141785E0,1.659299469E0,-4.584965515E-1,2.863404729E0
6.262985500E0,1.930086365E0,1.300345917E0,-2.200424194E-1,2.337638027E0
6.272990500E0,1.697320404E0,8.806187439E-1,2.865042114E-1,1.933512500E0
6.282994500E0,2.539319458E0,1.022972717E0,1.624721375E0,3.183447194E0
6.292999500E0,5.262306976E0,3.157084808E0,3.024759979E0,6.841654196E0
6.303003500E0,7.665260010E0,5.758674774E0,3.038381653E0,1.005735101E1
6.313008500E0,9.238338776E0,7.880961456E0,2.075434113E0,1.231924850E1
6.323012500E0,1.023990601E1,9.573491821E0,1.032253418E0,1.405606516E1
6.333017500E0,1.046848068E1,1.089629105E1,5.418731689E-2,1.511030055E1
6.343021500E0,9.837093658E0,1.167197800E1,-3.591032410E-1,1.526867503E1
6.353026500E0,8.256680145E0,1.143517044E1,1.414558411E-1,1.410517280E1
6.363030500E0,6.248306580E0,1.026939468E1,9.764195251E-1,1.206048081E1
6.373035500E0,4.883744202E0,9.395960999E0,1.037642212E0,1.064010065E1
6.383039500E0,4.387077026E0,9.084309082E0,1.998344421E-1,1.009014619E1
6.393044500E0,4.437971191E0,8.995843048E0,-9.457333374E-1,1.007547478E1
6.403048500E0,4.652624817E0,9.073381805E0,-1.810485077E0,1.035620738E1
6.413053500E0,4.712051239E0,9.293274536E0,-1.653162231E0,1.054994426E1
6.423058500E0,4.387825470E0,9.665849762E0,-1.228944397E-1,1.061587335E1
6.433062500E0,3.571722565E0,1.021116577E1,2.181264038E0,1.103553448E1
6.443067500E0,2.513872375E0,1.063792831E1,3.970493317E0,1.162969863E1
6.453071500E0,1.669478302E0,1.074824890E1,5.430706787E0,1.215749104E1
6.463076500E0,1.756297760E0,1.040321640E1,5.672903137E0,1.197886987E1
6.473080500E0,2.560874634E0,9.627230072E0,3.957769775E0,1.071940200E1
6.483085500E0,3.515439606E0,8.620274048E0,2.002236328E0,9.522415166E0
6.493089500E0,4.301006012E0,7.590415649E0,5.947132874E-1,8.744526650E0
6.503094500E0,4.855752411E0,6.650669861E0,-2.480342102E-1,8.238401668E0
6.513098500E0,5.222489777E0,6.259533234E0,-3.921844482E-1,8.161492781E0
6.523103500E0,5.365891571E0,6.088588715E0,-1.990859985E-2,8.115670104E0
6.533107500E0,5.485642548E0,6.152954865E0,5.203179932E-1,8.259652447E0
6.543112500E0,5.480104065E0,6.170917511E0,8.334667969E-1,8.294964159E0
6.553116500E0,4.954097900E0,5.824388123E0,7.191046143E-1,7.680084274E0
6.563121500E0,4.274361420E0,5.361700287E0,5.228627014E-1,6.876872902E0
6.573125500E0,3.545527039E0,4.646487579E0,3.083587646E-1,5.852836401E0
6.583130500E0,2.883154449E0,3.878734131E0,-1.038839722E-1,4.834040744E0
6.593134500E0,2.465522919E0,3.171155548E0,-3.745211792E-1,4.034265347E0
6.603139500E0,2.105970612E0,2.721939697E0,-1.857637024E-1,3.446531022E0
6.613143500E0,1.797312469E0,2.555336151E0,1.766326904E-2,3.124161799E0
6.623148500E0,1.391955414E0,2.303859100E0,1.125659180E-1,2.694063421E0
6.633152500E0,1.089434509E0,2.012864227E0,5.867797852E-2,2.289526819E0
6.643157500E0,1.077010345E0,1.941313019E0,-2.754272461E-2,2.220226593E0
6.653161500E0,1.290017395E0,2.056872711E0,-6.676116943E-2,2.428853080E0
6.663166500E0,1.636546783E0,2.396366730E0,-1.362167358E-2,2.901903587E0
6.673170500E0,1.876797180E0,3.164269867E0,4.611909485E-1,3.707784856E0
6.683175500E0,2.507136383E0,4.850213928E0,3.277135162E0,6.367882133E0
6.693179500E0,4.059857483E0,7.702831879E0,7.568710785E0,1.153695994E1
6.703184500E0,5.532644806E0,9.319170685E0,4.530927887E0,1.174676161E1
6.713189500E0,6.086642761E0,9.908195801E0,-9.006770325E-1,1.166322354E1
6.723193500E0,7.523504791E0,1.145882126E1,-1.362915802E0,1.377553079E1
6.733198500E0,1.078926361E1,1.411340103E1,1.923949127E0,1.786890814E1
6.743202500E0,1.428703995E1,1.483340378E1,4.151167603E0,2.100908305E1
6.753207500E0,1.497830246E1,1.242850479E1,3.217409363E0,1.972736675E1
6.763211500E0,1.473895020E1,8.863368530E0,1.511706390E0,1.726502855E1
6.773216500E0,1.650018768E1,7.536378021E0,3.225492554E0,1.842435859E1
6.783220500E0,1.756402542E1,8.444389801E0,3.419339447E0,1.978622224E1
6.793225500E0,1.632774628E1,9.135802002E0,9.964778137E-1,1.873635890E1
6.803229500E0,1.420845337E1,9.019493866E0,2.305355988E0,1.698664425E1
6.813234500E0,1.181897232E1,8.250542908E0,2.772085419E0,1.467801153E1
6.823238500E0,9.226363678E0,7.332501984E0,2.459685059E0,1.203916204E1
6.833243500E0,7.207362213E0,6.657854919E0,3.541485443E0,1.043145346E1
6.843247500E0,6.583160248E0,6.443949738E0,5.070555725E0,1.051537077E1
6.853252500E0,7.208260345E0,6.551126862E0,4.832101593E0,1.087315438E1
6.863256500E0,8.635093231E0,7.273674316E0,4.547094269E0,1.217157506E1
6.873261500E0,1.042282562E1,8.712332611E0,4.305496674E0,1.425052052E1
6.883265500E0,1.163665146E1,1.033076706E1,4.599934387E0,1.622639213E1
6.893270500E0,1.215038315E1,1.177840668E1,4.868625641E0,1.760869643E1
6.903274500E0,1.151390671E1,1.227986389E1,3.945794678E0,1.728971950E1
6.913279500E0,1.067490143E1,1.193453201E1,3.779640198E0,1.645212007E1
6.923283500E0,1.004680756E1,1.117216736E1,4.110452271E0,1.557727458E1
6.933288500E0,1.057281372E1,1.021984772E1,3.497926025E0,1.511506414E1
6.943292500E0,1.301513489E1,9.958491211E0,5.128485260E0,1.717168147E1
6.953297500E0,1.544922318E1,1.075992462E1,5.616620178E0,1.964690553E1
6.963301500E0,1.733455261E1,1.278356644E1,4.523443451E0,2.200835809E1
6.973306500E0,1.921823547E1,1.619242767E1,3.337609406E0,2.535103401E1
6.983310500E0,2.107931534E1,2.005394760E1,1.387764130E0,2.912772286E1
6.993315500E0,2.308873672E1,2.341116623E1,-3.210823059E-1,3.288275478E1
7.003319500E0,2.414434158E1,2.552941132E1,-5.891748047E-1,3.514323832E1
7.013324500E0,2.265568726E1,2.494577499E1,-1.439706116E0,3.372898766E1
7.023328500E0,2.045211960E1,2.359633118E1,-2.442470856E0,3.132158529E1
7.033333500E0,1.922557022E1,2.255599457E1,-1.964065704E0,2.970274390E1
7.043337500E0,1.803599396E1,2.138438095E1,-1.814376984E0,2.803356543E1
7.053342500E0,1.624362122E1,1.932930450E1,-1.673220520E0,2.530369360E1
7.063346500E0,1.272473877E1,1.733305573E1,5.764512634E-1,2.151013932E1
7.073351500E0,9.314829712E0,1.516586243E1,2.931653595E0,1.803784989E1
7.083355500E0,4.107458496E0,1.030966095E1,1.026146118E1,1.511482417E1
7.093360500E0,1.853894806E0,6.615343323E0,1.329146027E1,1.496203894E1
7.103365500E0,3.102448425E0,4.320465546E0,1.057206528E1,1.183470207E1
7.113369500E0,2.611918488E0,1.090332642E0,1.418824539E1,1.446780048E1
7.123374500E0,4.095633087E0,2.661615143E0,4.437522125E0,6.599242999E0
7.133378500E0,3.413052521E0,2.713706818E0,-2.858306122E0,5.213736289E0
7.143383500E0,1.579216003E0,7.438032532E-1,-3.315006409E0,3.746522915E0
7.153387500E0,1.660047913E-1,-4.427792358E-1,-3.237617340E0,3.271968381E0
7.163392500E0,-6.060896301E-1,-9.539662170E-1,-2.392474823E0,2.646003016E0
7.173396500E0,-6.354286194E-1,-1.008602600E0,-1.599873047E0,1.995154756E0
7.183401500E0,-6.827302551E-1,-1.002165985E0,-9.066645813E-1,1.514099708E0
7.193405500E0,-7.375163269E-1,-1.113833771E0,-7.453001404E-1,1.529715104E0
7.203410500E0,-7.375163269E-1,-1.381028137E0,-8.295748901E-1,1.771824920E0
7.213414500E0,-6.965016174E-1,-1.817221069E0,-1.135838013E0,2.253338614E0
7.223419500E0,-6.333329773E-1,-2.500550079E0,-1.379082184E0,2.925017783E0
7.233423500E0,-6.807843018E-1,-3.456761627E0,-1.735341339E0,3.927349969E0
7.243428500E0,-7.767347717E-1,-4.535268860E0,-2.061063995E0,5.041821628E0
7.253432500E0,-9.583071899E-1,-5.100343781E0,-2.432741089E0,5.731499678E0
7.263437500E0,-1.141526184E0,-5.179080048E0,-2.849025421E0,6.020207473E0
7.273441500E0,-1.266067200E0,-4.959935760E0,-3.183879089E0,6.028347614E0
7.283446500E0,-1.529369659E0,-4.790637817E0,-3.331771545E0,6.032402828E0
7.293450500E0,-1.839375000E0,-4.285887451E0,-3.027005310E0,5.560116256E0
7.303455500E0,-1.559008026E0,-3.189567261E0,-2.484683075E0,4.333300742E0
7.313459500E0,-1.194965057E0,-2.356399841E0,-2.103575592E0,3.377216601E0
7.323464500E0,-9.062155151E-1,-1.638792114E0,-1.931583252E0,2.690330837E0
7.333468500E0,-7.610174561E-1,-7.605683899E-1,-1.987866211E0,2.260359245E0
7.343473500E0,-8.852590942E-1,1.347198486E-1,-2.071542206E0,2.256794233E0
7.353477500E0,-1.155447235E0,6.848258972E-1,-2.309996338E0,2.672101776E0
7.363482500E0,-1.514101410E0,8.957373047E-1,-2.906805267E0,3.397699996E0
7.373486208E0,-1.915267181E0,8.303233337E-1,-3.585044861E0,4.148521649E0
7.383491208E0,-2.243085480E0,7.128176880E-1,-3.235222321E0,4.000775548E0
7.393496208E0,-2.323618011E0,4.897814941E-1,-2.617307281E0,3.534032255E0
7.403500208E0,-2.244732056E0,2.737806702E-1,-2.152374115E0,3.121937249E0
7.413505208E0,-2.126627655E0,6.152206421E-2,-1.691183167E0,2.717798861E0
7.423509208E0,-2.118843842E0,-1.335223389E-1,-1.164578247E0,2.421480938E0
7.433514208E0,-2.032024384E0,-3.691323853E-1,-7.979905701E-1,2.214084633E0
7.443518208E0,-1.935774536E0,-5.565426636E-1,-5.267546082E-1,2.081930164E0
7.453523208E0,-1.747166748E0,-6.800358582E-1,-2.728825378E-1,1.894598980E0
7.463527208E0,-1.535955963E0,-7.173083496E-1,-9.879455566E-2,1.698073130E0
7.473532208E0,-1.303639069E0,-6.289920044E-1,2.918930054E-2,1.447742304E0
7.483536208E0,-1.013692017E0,-4.483177185E-1,1.125659180E-1,1.114105636E0
7.493541208E0,-8.023315430E-1,-2.409988403E-1,2.344125366E-1,8.699227455E-1
7.503545208E0,-6.010002136E-1,-2.215393066E-2,2.580633545E-1,6.544377345E-1
7.513550208E0,-4.180805969E-1,1.514849854E-1,2.055226135E-1,4.898761384E-1
7.523554208E0,-2.944377136E-1,2.860551453E-1,1.514849854E-1,4.375714960E-1
7.533559208E0,-2.161505127E-1,3.912863159E-1,1.429527283E-1,4.693202613E-1
7.543563208E0,-1.718426514E-1,4.534071350E-1,1.419049072E-1,5.052177052E-1
7.553568208E0,-1.207987976E-1,4.706213379E-1,1.369651794E-1,5.048130877E-1
7.563572208E0,-1.191522217E-1,4.748126221E-1,1.797761536E-1,5.215014318E-1
7.573577208E0,-1.326242065E-1,4.933740234E-1,1.857637024E-1,5.436131532E-1
7.583581208E0,-1.047821045E-1,5.263055420E-1,1.381626892E-1,5.541351294E-1
7.593586208E0,-4.176315308E-2,5.914201355E-1,1.607656860E-1,6.143024853E-1
7.603590208E0,2.384691010E0,2.513273621E0,1.971999207E0,3.986486721E0
7.613595208E0,6.591692505E0,6.258934479E0,6.010451202E0,1.089725629E1
7.623599208E0,8.309220886E-1,2.449955292E0,3.421734467E0,4.289636256E0
7.633604208E0,1.755848694E0,5.266348572E0,8.500074005E0,1.015227511E1
7.643608208E0,2.843621658E1,4.835230087E1,6.786856659E1,8.804945056E1
7.653613208E0,2.216994736E1,5.434239441E1,2.561174011E1,6.403564341E1
7.663617208E0,1.038630157E1,4.849899582E1,-1.929382828E1,5.321916634E1
7.673622208E0,1.620245682E1,5.860058945E1,-2.163720520E1,6.453462125E1
7.683626208E0,2.523721893E1,5.560007904E1,-2.877466278E1,6.750012761E1
7.693631208E0,3.015254745E1,4.501588898E1,-1.820948318E1,5.715935318E1
7.703635208E0,3.122012741E1,2.613310593E1,2.430899918E1,4.741901540E1
7.713640208E0,3.061014587E1,1.580144073E1,2.505804153E1,4.259779343E1
7.723644208E0,2.412039139E1,1.358065887E1,-1.086770050E1,2.973776203E1
7.733649208E0,2.037398209E1,4.471501465E0,-1.591939545E0,2.091955408E1
7.743653208E0,1.763842072E1,-9.521699524E-1,7.460186462E0,1.917485059E1
7.753658208E0,1.484522919E1,-3.987707520E-1,-2.740800476E-1,1.485311306E1
7.763662208E0,1.580218918E1,1.468745728E0,7.498207397E0,1.755247877E1
7.773667208E0,1.364801880E1,9.032367096E0,4.716541901E0,1.703225880E1
7.783671208E0,9.812395020E0,1.386880966E1,-3.265758820E0,1.730006237E1
7.793676208E0,7.168892212E0,1.384605698E1,-9.626481628E-1,1.562155565E1
7.803680208E0,5.343288574E0,1.309611649E1,1.678010559E0,1.424340968E1
7.813685208E0,4.984634399E0,1.245080841E1,2.090253296E0,1.357344352E1
7.823689208E0,5.372028809E0,1.172406967E1,1.239721985E0,1.295567111E1
7.833694208E0,5.591173096E0,1.069301376E1,3.662882996E-1,1.207211361E1
7.843698208E0,5.498515778E0,9.379794617E0,-3.921844482E-2,1.087270716E1
7.853703208E0,5.008285217E0,7.891140289E0,3.472778320E-2,9.346348052E0
7.863707208E0,4.596641235E0,6.609505463E0,8.728349304E-1,8.097932694E0
7.873712208E0,4.383933563E0,5.595813446E0,1.511706390E0,7.267548268E0
7.883716208E0,4.140988770E0,4.590354309E0,1.766326904E0,6.429545194E0
7.893721208E0,3.850742340E0,3.582500153E0,1.763183441E0,5.547192061E0
7.903725208E0,3.725901947E0,2.925516357E0,1.532064056E0,4.978776110E0
7.913730208E0,3.594624939E0,2.323168945E0,1.198856964E0,4.444738510E0
7.923735208E0,3.389102325E0,1.688638458E0,1.173260193E0,3.964095596E0
7.933739208E0,2.880609741E0,9.321116638E-1,1.430575104E0,3.348625056E0
7.943744208E0,2.239942017E0,3.155438232E-1,9.392967224E-1,2.449323677E0
7.953748208E0,1.850601654E0,2.053729248E-1,-7.664062500E-2,1.863539188E0
7.963753208E0,1.544039154E0,2.315684509E-1,-3.103047180E-1,1.591844802E0
7.973757208E0,1.111887817E0,-3.891906738E-3,4.462220764E-1,1.198091736E0
7.983762208E0,3.659889221E-1,-5.325924683E-1,1.887874146E0,1.995412593E0
7.993766208E0,-8.756790161E-2,-5.316943359E-1,2.653382263E0,2.707545833E0
8.003771208E0,-2.544708252E-3,6.801855469E-1,2.430645447E0,2.524023800E0
8.013775208E0,1.074465637E0,3.342249756E0,1.762734375E0,3.928402005E0
8.023780208E0,2.308499451E0,5.400469666E0,9.599537659E-1,5.951113640E0
8.033784208E0,2.688708801E0,6.223907318E0,3.159928894E-1,6.787195947E0
8.043789208E0,2.720143433E0,6.597380676E0,-2.001338196E-1,7.138954099E0
8.053793208E0,2.870879974E0,6.826404419E0,-9.882449341E-1,7.471169732E0
8.063798208E0,3.326532440E0,7.141798553E0,-1.647623749E0,8.048960720E0
8.073802208E0,3.943699036E0,7.655829620E0,-1.752555542E0,8.788398044E0
8.083807208E0,4.672683105E0,8.619525604E0,-1.584155731E0,9.931754046E0
8.093811208E0,5.447920990E0,9.966275024E0,-1.207688599E0,1.142212733E1
8.103816208E0,6.167474670E0,1.174038574E1,-3.692820740E-1,1.326690508E1
8.113820208E0,6.892417145E0,1.394425278E1,1.080153809E0,1.559212403E1
8.123825208E0,7.359296265E0,1.583916229E1,1.931583252E0,1.757183307E1
8.133829208E0,7.362888794E0,1.680270859E1,1.757944336E0,1.842914853E1
8.143834208E0,6.841223602E0,1.700254303E1,1.394200745E0,1.838022322E1
8.153838208E0,5.716462555E0,1.650602554E1,1.774559784E0,1.755778704E1
8.163843208E0,4.134252777E0,1.475826004E1,3.691473541E0,1.576468402E1
8.173847208E0,4.558769989E0,1.119896164E1,8.145162048E0,1.457884736E1
8.183852208E0,7.082222443E0,7.666906586E0,9.688602448E0,1.424107962E1
8.193856208E0,6.665938110E0,5.784720612E0,5.565875702E0,1.043439964E1
8.203861208E0,5.055137787E0,4.957690430E0,2.430944824E0,7.486160911E0
8.213865208E0,3.960314484E0,4.179458771E0,9.168434143E-1,5.830314595E0
8.223870208E0,3.154689789E0,3.378624115E0,3.035687256E-1,4.632420808E0
8.233874208E0,2.285597076E0,2.846331024E0,-6.914122009E-1,3.715320326E0
8.243879208E0,1.579365692E0,2.639161835E0,-1.635798340E0,3.483591163E0
8.253883208E0,1.300046539E0,2.638862457E0,-1.646126862E0,3.370971628E0
8.263888208E0,1.057401123E0,2.279160461E0,-1.250649261E0,2.806562509E0
8.273892208E0,1.038240967E0,1.961071930E0,-8.373587036E-1,2.371690751E0
8.283897208E0,9.900411987E-1,2.267933807E0,-3.776646423E-1,2.503265050E0
8.293901208E0,9.750723267E-1,2.727478180E0,-7.155120850E-2,2.897416580E0
8.303906208E0,9.822573853E-1,3.051404572E0,1.639091492E-1,3.209792149E0
8.313910208E0,1.187181244E0,3.477268982E0,2.667453003E-1,3.684013020E0
8.323915208E0,1.554816742E0,4.321213989E0,4.315525818E-1,4.612654667E0
8.333919208E0,2.323019257E0,5.879174194E0,1.587299194E0,6.517716349E0
8.343924208E0,4.111949158E0,8.305628357E0,5.579197998E0,1.081753385E1
8.353928208E0,5.702092438E0,1.022912842E1,6.973847809E0,1.363024136E1
8.363933208E0,7.380552063E0,1.142933258E1,2.068398743E0,1.376155752E1
8.373937125E0,8.441695404E0,1.267174896E1,-2.702779541E0,1.546416698E1
8.383942125E0,9.739646301E0,1.429467407E1,-2.946173401E0,1.754646274E1
8.393946125E0,1.277054352E1,1.616892654E1,3.821553040E-1,2.060745035E1
8.403951125E0,1.402298904E1,1.489896744E1,-5.153034210E0,2.109922307E1
8.413955125E0,1.400098480E1,1.110735214E1,-9.613458710E0,2.029333475E1
8.423960125E0,1.481199829E1,6.885232086E0,-1.319805450E0,1.638729998E1
8.433964125E0,1.471410187E1,3.019969940E0,6.347849579E0,1.630706002E1
8.443969125E0,1.313338898E1,-4.927752686E-1,8.259524231E0,1.552251507E1
8.453973125E0,1.048240173E1,-2.345622253E0,6.436914368E0,1.252264175E1
8.463978125E0,6.819668427E0,-1.725910950E-1,4.766088867E0,8.321854855E0
8.473982125E0,5.641917572E0,4.151167603E0,4.302802277E0,8.220555564E0
8.483987125E0,6.194867706E0,7.944728851E0,3.357967072E0,1.061937123E1
8.493991125E0,7.507039032E0,1.097667389E1,4.546794891E0,1.405405096E1
8.503996125E0,9.257498932E0,1.315748886E1,4.742138672E0,1.677225920E1
8.514000125E0,1.049617310E1,1.400323013E1,2.295925598E0,1.765025150E1
8.524005125E0,1.107067841E1,1.289224045E1,1.190025330E-1,1.699364427E1
8.534009125E0,1.141541153E1,1.029379395E1,1.669029236E-1,1.537210691E1
8.544014125E0,1.119387222E1,7.388784943E0,1.658101959E0,1.351466686E1
8.554019125E0,9.982740784E0,4.902155914E0,2.827619934E0,1.147526386E1
8.564023125E0,8.590336304E0,3.343297577E0,3.838168488E0,9.985141653E0
8.574028125E0,7.968229980E0,2.923121338E0,5.859115906E0,1.031341682E1
8.584032125E0,8.415799255E0,3.686533813E0,6.552324371E0,1.128490865E1
8.594037125E0,8.977880402E0,5.182672577E0,5.012326813E0,1.151459299E1
8.604041125E0,9.664352875E0,7.115453339E0,4.740492096E0,1.290355215E1
8.614046125E0,1.067490143E1,9.409432983E0,4.785997467E0,1.501321822E1
8.624050125E0,1.214349747E1,1.222058716E1,4.950655060E0,1.792529684E1
8.634055125E0,1.406520126E1,1.532947220E1,5.367987213E0,2.148576020E1
8.644059125E0,1.546688644E1,1.832160004E1,4.509971466E0,2.439765249E1
8.654064125E0,1.734413269E1,2.045316742E1,3.804638214E0,2.708553614E1
8.664068125E0,1.958796661E1,2.102213425E1,2.788102112E0,2.886853092E1
8.674073125E0,2.101015915E1,2.099578903E1,1.119521942E0,2.972378297E1
8.684077125E0,2.148676804E1,2.107647125E1,4.146377563E-2,3.009818201E1
8.694082125E0,2.097752701E1,2.074071945E1,-4.504133606E-1,2.950316856E1
8.704086125E0,1.998134857E1,2.067545517E1,-8.660989380E-1,2.876593236E1
8.714091125E0,1.929801956E1,2.088621689E1,-8.446934509E-1,2.844927278E1
8.724095125E0,1.904429718E1,2.129576523E1,-1.441352692E0,2.860546048E1
8.734100125E0,1.905103317E1,2.150383255E1,-2.664459229E0,2.885231398E1
8.744104125E0,1.776625488E1,2.052052734E1,-2.486778717E0,2.725648406E1
8.754109125E0,1.573423050E1,1.907603119E1,-9.949809265E-1,2.474774661E1
8.764113125E0,1.282652710E1,1.669702835E1,9.948312378E-1,2.107843074E1
8.774118125E0,9.061107330E0,1.345342346E1,4.805157623E0,1.691708629E1
8.784122125E0,3.577710114E0,7.423662415E0,1.381013168E1,1.608199336E1
8.794127125E0,3.828588409E0,5.399721222E0,1.212299011E1,1.381238458E1
8.804131125E0,3.647764435E0,2.068398743E0,1.530836609E1,1.587231965E1
8.814136125E0,3.421884155E0,8.744815063E-1,1.339504486E1,1.385284216E1
8.824140125E0,4.005370789E0,2.561323700E0,1.119072876E0,4.884229556E0
8.834145125E0,2.471510468E0,1.594783630E0,-3.016676788E0,4.213316706E0
8.844149125E0,8.762777710E-1,2.158511353E-1,-3.830085297E0,3.934972404E0
8.854154125E0,-3.035687256E-1,-7.559280396E-1,-3.191513214E0,3.293833294E0
8.864158125E0,-7.306306458E-1,-1.075513458E0,-2.071242828E0,2.445525954E0
8.874163125E0,-8.217910767E-1,-1.251697083E0,-1.375040588E0,2.032934524E0
8.884167125E0,-9.596543884E-1,-1.428928528E0,-1.101409607E0,2.043496123E0
8.894172125E0,-9.951306152E-1,-1.885030060E0,-1.322799225E0,2.508669180E0
8.904176125E0,-9.848020935E-1,-2.329006805E0,-1.433269501E0,2.906607873E0
8.914181125E0,-1.073417816E0,-2.849025421E0,-1.689835968E0,3.482056470E0
8.924185125E0,-1.105301514E0,-3.488795013E0,-2.195933533E0,4.267962765E0
8.934190125E0,-1.139580231E0,-4.117337952E0,-2.489024048E0,4.944325598E0
8.944194125E0,-1.346899109E0,-4.462819519E0,-2.780467987E0,5.427881492E0
8.954199125E0,-1.507066040E0,-4.348008270E0,-3.028651886E0,5.509006826E0
8.964203125E0,-1.680405579E0,-4.260889435E0,-3.080893250E0,5.520040299E0
8.974208125E0,-1.958976288E0,-3.893403625E0,-2.935545502E0,5.254865106E0
8.984212125E0,-2.118544464E0,-3.257076874E0,-2.810705109E0,4.795502436E0
8.994217125E0,-1.943857727E0,-2.738704834E0,-2.865640869E0,4.414859525E0
9.004221125E0,-1.648970947E0,-2.342478790E0,-3.046614532E0,4.181886199E0
9.014226125E0,-1.587598572E0,-1.797911224E0,-2.689008179E0,3.603292797E0
9.024230125E0,-1.428778839E0,-1.110540619E0,-2.109114075E0,2.779041493E0
9.034235125E0,-1.173260193E0,-3.896397400E-1,-1.733994141E0,2.129576081E0
9.044239125E0,-9.990225220E-1,2.276765442E-1,-1.449435883E0,1.775034362E0
9.054244125E0,-9.400451660E-1,7.267387390E-1,-1.270707550E0,1.739693015E0
9.064248125E0,-9.177415466E-1,1.009051666E0,-1.216370544E0,1.827564530E0
9.074253125E0,-1.072070618E0,1.119821320E0,-1.257085876E0,1.995895813E0
9.084257125E0,-1.384470978E0,1.156195679E0,-1.385818176E0,2.274651699E0
9.094262125E0,-1.695524139E0,1.110390930E0,-1.425485687E0,2.477857859E0
9.104266125E0,-1.891017609E0,1.021625519E0,-1.364712067E0,2.545997903E0
9.114271125E0,-2.017354889E0,8.527766418E-1,-1.233884125E0,2.513845417E0
9.124275125E0,-2.067650299E0,7.249424744E-1,-1.007255402E0,2.411489746E0
9.134280125E0,-2.143392792E0,6.430627441E-1,-6.581813049E-1,2.332566180E0
9.144284125E0,-2.139650574E0,5.691165161E-1,-4.087998962E-1,2.251469640E0
9.154289125E0,-2.051783295E0,4.899311829E-1,-3.396437073E-1,2.136634059E0
9.164293125E0,-1.829196167E0,4.104464722E-1,-3.905378723E-1,1.914926827E0
9.174298125E0,-1.544637909E0,3.029699707E-1,-4.553530884E-1,1.638610237E0
9.184302125E0,-1.331930237E0,2.189945984E-1,-4.067042542E-1,1.409753574E0
9.194307125E0,-1.060544586E0,1.763333130E-1,-3.906875610E-1,1.143890304E0
9.204311125E0,-8.158035278E-1,1.558259583E-1,-3.631448364E-1,9.064718956E-1
9.214316125E0,-5.780978394E-1,1.755848694E-1,-3.613485718E-1,7.039885997E-1
9.224320125E0,-3.728746033E-1,2.318678284E-1,-3.463796997E-1,5.592647459E-1
9.234325125E0,-2.317181396E-1,2.567161560E-1,-3.008743286E-1,4.583904914E-1
9.244330125E0,-1.468446350E-1,2.251318359E-1,-3.005749512E-1,4.032282129E-1
9.254334125E0,-6.436614990E-2,2.704875183E-1,-2.754272461E-1,3.913651322E-1
9.264339125E0,-3.607498169E-2,4.403842163E-1,-2.442919922E-1,5.048942857E-1
9.274343125E0,-8.577163696E-2,6.483018494E-1,-2.380050659E-1,6.959155646E-1
9.284348125E0,-1.604663086E-1,8.652008057E-1,-2.314187622E-1,9.098771971E-1
9.294352125E0,8.625064087E-1,1.722019043E0,1.655557251E-1,1.933048263E0
9.304357125E0,4.023782501E0,4.609963531E0,2.020049286E0,6.443848888E0
9.314361125E0,6.840774536E-2,3.549269257E0,1.721569977E0,3.945351069E0
9.324366125E0,1.335373077E0,1.135987701E1,5.288053436E0,1.260133073E1
9.334370125E0,8.037685547E0,3.442062195E1,2.874532379E1,4.555960101E1
9.344375125E0,1.402822815E1,5.734979050E1,4.372048279E1,7.346611648E1
9.354379125E0,1.119686600E1,4.700525208E1,9.822723541E0,4.930871554E1
9.364384125E0,9.943073273E0,4.654286362E1,-1.388632324E1,4.957754364E1
9.374388708E0,1.704894653E1,5.659775436E1,-1.976849121E1,6.232788799E1
9.384393708E0,2.748240005E1,5.558406235E1,-1.377211075E1,6.351803944E1
9.394397708E0,3.252915527E1,4.439123795E1,1.281634827E1,5.650651938E1
9.404402708E0,2.108949417E1,2.833487732E1,1.395697632E0,3.534939899E1
9.414406708E0,1.389335861E1,1.770712784E1,-5.808221741E0,2.324442362E1
9.424411708E0,1.128353577E1,8.224048004E0,8.247998199E0,1.621673886E1
9.434415708E0,1.028690826E1,2.093546448E0,1.585428085E1,1.901477425E1
9.444420708E0,1.142035126E1,1.432521057E0,4.918771362E0,1.251682273E1
9.454424708E0,1.109537704E1,4.256398773E0,-3.171305237E0,1.229965443E1
9.464429708E0,1.020787262E1,1.028645920E1,-3.659889221E-1,1.449640832E1
9.474433708E0,1.160626465E1,1.468326599E1,4.408183136E0,1.922851419E1
9.484438708E0,1.179142960E1,1.819062241E1,4.777165833E0,2.219815012E1
9.494442708E0,9.445358276E0,2.098531082E1,1.982926483E0,2.309826965E1
9.504447708E0,7.757767639E0,2.023671753E1,-2.888992310E-2,2.167276009E1
9.514451708E0,6.518943787E0,1.749382141E1,-1.722917175E-1,1.866976433E1
9.524456708E0,5.239554291E0,1.449196381E1,5.586383057E-1,1.542018226E1
9.534460708E0,4.367168427E0,1.197749268E1,1.314416656E0,1.281640285E1
9.544465708E0,3.801494751E0,9.797725525E0,2.043251038E0,1.070615069E1
9.554469708E0,3.407663727E0,8.098459167E0,2.428699493E0,9.115689452E0
9.564474708E0,3.185076599E0,6.761289825E0,2.693199463E0,7.944373883E0
9.574478708E0,3.114423523E0,5.604046326E0,3.134631500E0,7.136587682E0
9.584483708E0,3.212170258E0,4.391118622E0,3.421135712E0,6.426828928E0
9.594487708E0,3.510200500E0,3.063080292E0,3.524420929E0,5.841704487E0
9.604492708E0,4.048032074E0,2.089953918E0,3.104394379E0,5.512869989E0
9.614496708E0,4.348008270E0,2.047592010E0,5.532495117E-1,4.837757123E0
9.624501708E0,3.927083588E0,2.210004272E0,-2.561772766E0,5.183510788E0
9.634505708E0,3.357368317E0,2.029629364E0,-4.234693909E0,5.772690003E0
9.644510708E0,2.884950714E0,1.431323547E0,-3.932472382E0,5.082909280E0
9.654514708E0,2.399360504E0,7.092251587E-1,-2.609972534E0,3.615506574E0
9.664519708E0,1.705852661E0,-2.573149109E-1,-9.120533752E-1,1.951406063E0
9.674523708E0,9.141490173E-1,-1.201251984E0,9.710307312E-1,1.794874769E0
9.684528708E0,5.158273315E-1,-1.582958221E0,1.758393402E0,2.421524710E0
9.694532708E0,2.607577515E-1,-1.464105377E0,1.514700165E0,2.122714241E0
9.704537708E0,6.242019653E-2,-1.175804901E0,1.063238983E0,1.586471110E0
9.714541708E0,-3.921844482E-2,-9.108558655E-1,5.087919617E-1,1.044062141E0
9.724546708E0,-8.801696777E-2,-8.255332947E-1,1.166075134E-1,8.383612106E-1
9.734550708E0,-6.346801758E-2,-7.855664063E-1,-5.448669434E-2,7.900073213E-1
9.744555708E0,-6.182144165E-2,-8.990304565E-1,-9.999206543E-2,9.066841046E-1
9.754559708E0,-7.349716187E-2,-9.633966064E-1,-1.155596924E-1,9.730821633E-1
9.764564708E0,-8.666976929E-2,-1.025816803E0,-1.543290710E-1,1.040975131E0
9.774568708E0,-1.462458801E-1,-1.062789917E0,-2.145039368E-1,1.094039398E0
9.784573708E0,-1.573228455E-1,-7.521858215E-1,-1.673519897E-1,7.864735700E-1
9.794577708E0,5.074447632E-2,1.109193420E-1,-1.766326904E-2,1.232480969E-1
9.804582708E0,1.594184875E-1,4.921765137E-1,9.490264893E-2,5.259833529E-1
9.814586708E0,2.785707092E-1,7.824229431E-1,3.742218018E-1,9.109496467E-1
9.824591708E0,6.370751953E-1,1.452279968E0,1.110540619E0,1.936048134E0
9.834595708E0,2.367626495E0,4.180955658E0,2.435884552E0,5.386982364E0
9.844600708E0,7.868836670E0,1.515523453E1,3.855382690E0,1.750610464E1
9.854604708E0,1.467233871E1,3.386527679E1,3.941453705E0,3.711697123E1
9.864609708E0,1.451815933E1,4.067326950E1,2.772684174E0,4.327562339E1
9.874613708E0,1.393407394E1,4.232538391E1,3.119812317E0,4.466911426E1
9.884618708E0,1.630095200E1,4.478926025E1,9.865235138E0,4.867362463E1
9.894622708E0,1.226085342E1,3.148058578E1,1.513577499E1,3.701955554E1
9.904627708E0,4.740791473E0,1.391506348E1,8.244555359E0,1.685457767E1
9.914631708E0,3.501069489E0,7.678731995E0,1.260229340E0,8.532795005E0
9.924636708E0,2.873274994E0,5.501359863E0,-1.222657471E0,6.325785392E0
9.934640708E0,2.408790894E0,4.534071350E0,-2.034868469E0,5.522749882E0
9.944645708E0,2.164349213E0,3.404819641E0,-1.500030670E0,4.304334596E0
9.954649708E0,2.224673767E0,2.628533936E0,-5.248086548E-1,3.483358745E0
9.964654708E0,2.377356262E0,2.145338745E0,-3.875440979E-1,3.225599410E0
9.974658708E0,2.721640320E0,1.854643250E0,-6.394702148E-1,3.354988788E0
9.984663708E0,3.016078033E0,1.676513672E0,-1.266067200E0,3.675642930E0
9.994667708E0,2.924318848E0,1.558858337E0,-1.817969513E0,3.779774225E0
1.000467271E1,2.493814087E0,1.530267792E0,-1.820663910E0,3.446105815E0
1.001467671E1,1.574875031E0,1.638343048E0,-1.350192261E0,2.643372551E0
1.002468171E1,8.966354370E-1,2.024689636E0,-8.746311951E-1,2.380819808E0
1.003468571E1,6.680607605E-1,2.795137482E0,-7.424560547E-1,2.968221642E0
1.004469071E1,1.184037781E-1,3.410657501E0,-8.202941895E-1,3.509912620E0
1.005469471E1,-4.441264343E-1,3.625460815E0,-1.061293030E0,3.803624233E0
1.006469971E1,-7.842192078E-1,3.760480042E0,-1.437909851E0,4.101681929E0
1.007470371E1,-8.725355530E-1,3.802692261E0,-1.555714874E0,4.200242313E0
1.008470871E1,-6.523434448E-1,3.850892029E0,-1.454375610E0,4.167748769E0
1.009471271E1,-3.549119568E-1,4.082610168E0,-1.209335175E0,4.272722768E0
1.010471771E1,-2.065704346E-1,4.336631927E0,-5.607339478E-1,4.377610122E0
1.011472171E1,1.777403870E0,6.571035461E0,1.160566589E1,1.345470744E1
1.012472671E1,5.652395782E0,1.062909668E1,1.500225266E1,1.923525043E1
1.013473071E1,3.746858368E0,1.192450287E1,3.677103424E0,1.302896028E1
1.014473571E1,2.687810669E0,1.475137436E1,2.254312134E0,1.516276013E1
1.015473971E1,4.985083466E0,1.543664932E1,2.880160675E0,1.647533080E1
1.016474471E1,8.810079346E0,1.523501862E1,4.806953888E0,1.824363166E1
1.017474871E1,1.005504044E1,1.467144058E1,2.551743622E0,1.796848359E1
1.018475371E1,8.842711487E0,1.310494812E1,-3.495680695E0,1.619113940E1
1.019475771E1,8.824449463E0,1.255394394E1,-4.823120270E0,1.608523876E1
1.020476271E1,9.708211670E0,1.246697479E1,-3.910917206E0,1.627790244E1
1.021476671E1,9.974507904E0,1.197659454E1,-2.392025757E0,1.576868454E1
1.022477171E1,9.830507355E0,1.070783295E1,-1.129401398E0,1.457985284E1
1.023477571E1,1.012120285E1,9.160800018E0,-2.439177704E0,1.386753734E1
1.024478071E1,1.094239517E1,7.603139191E0,-3.161126404E0,1.369439512E1
1.025478471E1,1.207089844E1,6.290668488E0,-4.029620361E-1,1.361768987E1
1.026478971E1,1.357302475E1,6.045328674E0,1.787582703E0,1.496557555E1
1.027479371E1,1.427087357E1,7.007228394E0,2.361938324E0,1.607289130E1
1.028479871E1,1.254660919E1,9.228010254E0,3.818708954E0,1.603608785E1
1.029480271E1,9.902807007E0,1.099718124E1,3.688030701E0,1.525139837E1
1.030480771E1,7.806865540E0,1.208781326E1,3.173101501E0,1.473536400E1
1.031481171E1,6.295308838E0,1.263253052E1,2.913990326E0,1.441190759E1
1.032481671E1,5.239404602E0,1.288520508E1,2.714006195E0,1.417200410E1
1.033482071E1,4.703668671E0,1.314416656E1,2.301763458E0,1.414891263E1
1.034482571E1,4.487967224E0,1.326301941E1,1.606159973E0,1.409359016E1
1.035482971E1,4.590503998E0,1.299612442E1,1.360670471E0,1.385003253E1
1.036483471E1,5.210664368E0,1.254675888E1,1.890269165E0,1.371660669E1
1.037483771E1,6.996750183E0,1.257774445E1,2.317181396E0,1.457818569E1
1.038484271E1,1.012210098E1,1.359802277E1,2.835104370E0,1.718723271E1
1.039484671E1,1.412537613E1,1.577868805E1,4.832700348E0,2.172206804E1
1.040485171E1,1.690853851E1,1.866917725E1,5.673801270E0,2.581915712E1
1.041485571E1,1.774769348E1,2.162358353E1,3.152294769E0,2.815132236E1
1.042486071E1,1.898067947E1,2.401306458E1,9.933343506E-1,3.062482942E1
1.043486471E1,1.994467484E1,2.491119690E1,8.614585876E-1,3.192334406E1
1.044486971E1,1.918500458E1,2.378972900E1,1.072819061E0,3.058049292E1
1.045487371E1,1.721944199E1,2.219898697E1,-1.853146362E-1,2.809516945E1
1.046487871E1,1.609737534E1,2.149051025E1,-1.393452301E0,2.688697144E1
1.047488271E1,1.586356155E1,2.178419952E1,-2.071242828E0,2.702765215E1
1.048488771E1,1.566312836E1,2.177671509E1,-2.600093079E0,2.695031343E1
1.049489171E1,1.528576309E1,2.150038971E1,-2.960842896E0,2.654595829E1
1.050489671E1,1.374247238E1,2.039972855E1,-2.117496643E0,2.468781610E1
1.051490071E1,1.138697067E1,1.905163193E1,-6.153703308E-1,2.220374880E1
1.052490571E1,8.314160614E0,1.626248199E1,1.407972107E0,1.831873284E1
1.053490971E1,4.828958130E0,1.152019363E1,5.969286804E0,1.384435202E1
1.054491471E1,1.200653229E0,5.422922974E0,1.337348969E1,1.448101820E1
1.055491871E1,1.168919220E0,3.304079132E0,1.021909927E1,1.080339303E1
1.056492371E1,6.753955078E-1,1.097517700E0,1.042821442E1,1.050753825E1
1.057492771E1,9.131011963E-3,-1.270857239E-1,8.031697998E0,8.032708565E0
1.058493271E1,5.075944519E-1,5.779481506E-1,-6.271957397E-2,7.717576934E-1
1.059493671E1,1.966909790E-1,-1.589694214E-1,-1.778152313E0,1.796046844E0
1.060494171E1,-4.093986511E-1,-8.298742676E-1,-1.643432465E0,1.886045816E0
1.061494571E1,-5.605842590E-1,-9.831555176E-1,-1.087488556E0,1.569547974E0
1.062495071E1,-5.484594727E-1,-1.263073425E0,-6.765930176E-1,1.534255644E0
1.063495471E1,-6.337820435E-1,-1.450034637E0,-6.830296326E-1,1.723603669E0
1.064495971E1,-8.396040344E-1,-1.666035461E0,-9.770182800E-1,2.105985236E0
1.065496371E1,-1.175505524E0,-1.726958771E0,-1.613345032E0,2.639523067E0
1.066496871E1,-1.481020203E0,-1.739832001E0,-2.483635254E0,3.374741517E0
1.067497271E1,-1.592837677E0,-1.775457916E0,-3.173849945E0,3.970227468E0
1.068497771E1,-1.721569977E0,-2.043849792E0,-3.965553589E0,4.781918070E0
1.069498171E1,-1.919009399E0,-2.248474274E0,-4.806953888E0,5.643140909E0
1.070498671E1,-1.867965546E0,-2.299967194E0,-5.218747559E0,6.001205750E0
1.071499071E1,-1.699416046E0,-2.194436646E0,-4.775818634E0,5.523767801E0
1.072499571E1,-1.557211761E0,-1.994751892E0,-3.975133667E0,4.712285141E0
1.073499971E1,-1.470541992E0,-1.869013367E0,-3.499722290E0,4.231283590E0
1.074500471E1,-1.451381836E0,-1.741927643E0,-2.896327057E0,3.678251156E0
1.075500871E1,-1.514101410E0,-1.606159973E0,-2.267784119E0,3.164663923E0
1.076501371E1,-1.588347015E0,-1.443897400E0,-1.788480835E0,2.793984545E0
1.077501771E1,-1.662293243E0,-1.237626343E0,-1.386117554E0,2.493242801E0
1.078502271E1,-1.697619781E0,-1.003662872E0,-1.033750305E0,2.226632385E0
1.079502671E1,-1.700164490E0,-7.096742249E-1,-7.351213074E-1,1.983582651E0
1.080503171E1,-1.744023285E0,-4.233197021E-1,-4.816983032E-1,1.858184610E0
1.081503571E1,-1.794767761E0,-2.130070496E-1,-2.788700867E-1,1.828751444E0
1.082504071E1,-1.835483093E0,-7.828720093E-2,-1.646575928E-1,1.844515978E0
1.083504471E1,-1.880838776E0,-9.460327148E-2,-8.801696777E-2,1.885272199E0
1.084504971E1,-2.003284149E0,-1.763333130E-1,-6.825805664E-2,2.012187859E0
1.085505371E1,-2.125130768E0,-2.261796570E-1,-1.445993042E-1,2.142019369E0
1.086505871E1,-2.222727814E0,-3.252735901E-1,-8.547225952E-2,2.248027435E0
1.087506271E1,-2.301613770E0,-4.803511047E-1,1.751358032E-2,2.351269838E0
1.088506771E1,-2.404599609E0,-6.903643799E-1,9.819580078E-2,2.503666246E0
1.089507171E1,-2.444865875E0,-8.205935669E-1,8.173004150E-2,2.580198200E0
1.090507671E1,-2.409539337E0,-9.015751648E-1,8.038284302E-2,2.573942306E0
1.091508071E1,-2.339784393E0,-9.503736877E-1,-5.538482666E-3,2.525436958E0
1.092508571E1,-2.568957825E0,-7.664062500E-1,-1.607357483E0,3.125783250E0
1.093508971E1,-2.813998260E0,-6.735992432E-1,-2.285896454E0,3.687498440E0
1.094509471E1,-2.263892212E0,-7.658074951E-1,-3.303630066E-1,2.412635236E0
1.095509871E1,-1.468446350E0,-5.983058167E-1,5.945635986E-1,1.693461073E0
1.096510371E1,-6.834786987E-1,-3.222798157E-1,9.256750488E-1,1.194940043E0
1.097510771E1,-9.280700684E-2,-1.013392639E-1,1.107546844E0,1.116038888E0
1.098511271E1,3.216810608E-1,3.592529297E-2,1.223256226E0,1.265355731E0
1.099511671E1,4.129911804E-1,3.906875610E-2,1.245709534E0,1.312966232E0
1.100512171E1,1.393601990E-1,-7.229965210E-2,1.019230499E0,1.031251335E0
1.101512571E1,-2.098635864E-1,-1.908531189E-1,6.897656250E-1,7.458178433E-1
1.102513071E1,-2.710862732E-1,1.736389160E-2,5.890251160E-1,6.486446327E-1
1.103513471E1,-2.535726929E-1,4.438270569E-1,6.491999817E-1,8.262821450E-1
1.104513971E1,-2.134561157E-1,9.367520142E-1,1.245260468E0,1.572813238E0
1.105514371E1,8.982820129E-1,3.403921509E0,6.437662811E0,7.337376553E0
1.106514871E1,1.601220245E0,6.140081635E0,1.308414139E1,1.454163899E1
1.107515271E1,2.103874969E0,1.196521820E1,2.247845581E1,2.555139355E1
1.108515771E1,2.705923004E0,2.468381973E1,3.717684036E1,4.470716313E1
1.109516171E1,4.215084686E0,4.009741699E1,1.291140060E1,4.233525781E1
1.110516671E1,-1.240171051E0,4.897575439E1,-5.874533844E0,4.934240256E1
1.111517071E1,-4.496050415E0,5.492797668E1,-9.900411987E0,5.599388582E1
1.112517571E1,-2.524799652E0,6.796661270E1,-1.337004684E1,6.931517300E1
1.113517971E1,7.207212524E0,7.266713791E1,2.113005981E0,7.305423765E1
1.114518471E1,1.534010010E1,6.089322189E1,7.294031982E0,6.321792504E1
1.115518871E1,9.857151947E0,3.572261444E1,-4.213737488E0,3.729643697E1
1.116519371E1,8.379424896E0,2.293156357E1,-1.971999207E0,2.449408398E1
1.117519771E1,9.702972565E0,1.336241272E1,4.590803375E0,1.713993074E1
1.118520271E1,1.005294479E1,6.967411194E0,7.473808136E0,1.433402685E1
1.119520671E1,9.723479919E0,5.280569000E0,2.170636139E0,1.127573199E1
1.120521171E1,8.485254822E0,5.008883972E0,-1.003962250E0,9.904363091E0
1.121521571E1,6.938371582E0,4.817282410E0,6.008505249E-1,8.468071290E0
1.122522071E1,5.404660950E0,5.322930908E0,3.125051422E0,8.204261077E0
1.123522471E1,4.372257843E0,7.770042114E0,2.361638947E0,9.223206146E0
1.124522971E1,2.984344025E0,1.094972992E1,1.373244324E0,1.143191561E1
1.125523371E1,1.880090332E0,1.192734695E1,1.116977234E0,1.212616935E1
1.126523871E1,1.063538361E0,1.104822510E1,9.330097961E-1,1.113844239E1
1.127524271E1,3.375480652E-1,9.405092010E0,9.833052063E-1,9.462377267E0
1.128524771E1,-2.121089172E-1,7.555089111E0,1.537303162E0,7.712824559E0
1.129525171E1,-4.911286926E-1,5.611081696E0,2.462828522E0,6.147436011E0
1.130525671E1,-4.179309082E-1,4.033362579E0,3.369942169E0,5.272493733E0
1.131526071E1,-4.849914551E-2,2.886297913E0,3.933220825E0,4.878861944E0
1.132526571E1,3.659889221E-1,2.178569641E0,4.044888611E0,4.608821698E0
1.133526971E1,9.973759460E-1,1.983824615E0,3.672313385E0,4.291410547E0
1.134527471E1,1.768721924E0,1.843416595E0,2.979553986E0,3.924831709E0
1.135527871E1,2.505789185E0,1.594633942E0,2.604284363E0,3.950206816E0
1.136528371E1,3.304977264E0,1.555565186E0,2.357896729E0,4.347681537E0
1.137528775E1,4.445455627E0,3.188818817E0,2.198927307E0,5.896263434E0
1.138529275E1,4.974305878E0,6.301296387E0,2.232008514E0,8.332581660E0
1.139529675E1,5.037025452E0,7.860154724E0,2.115550690E0,9.572314893E0
1.140530175E1,5.028942261E0,8.289162598E0,1.698667603E0,9.843066009E0
1.141530575E1,4.857398987E0,8.343798981E0,1.422791290E0,9.758977477E0
1.142531075E1,4.791535950E0,8.475225677E0,1.243164825E0,9.814974571E0
1.143531475E1,4.684059448E0,8.688083038E0,1.093027039E0,9.930654958E0
1.144531975E1,4.192781067E0,8.733887787E0,9.964778137E-1,9.739259571E0
1.145532375E1,3.304827576E0,8.516988831E0,9.273216248E-1,9.182641746E0
1.146532875E1,2.378254395E0,8.516539764E0,8.063731384E-1,8.879064205E0
1.147533275E1,1.428479462E0,8.779842224E0,6.644682312E-1,8.920072930E0
1.148533775E1,4.948709106E-1,8.822952576E0,5.445675659E-1,8.853583636E0
1.149534175E1,-2.989283752E-1,8.761131134E0,6.911128235E-1,8.793430153E0
1.150534675E1,-7.146139526E-1,8.871152344E0,1.637444916E0,9.049267532E0
1.151535075E1,-4.468208313E-1,8.828191681E0,3.222648468E0,9.408617346E0
1.152535575E1,7.783813477E-2,8.564889221E0,4.345762939E0,9.604636467E0
1.153535975E1,7.723937988E-2,8.440497894E0,4.580474854E0,9.603578526E0
1.154536475E1,5.140310669E-1,8.300089874E0,4.743485870E0,9.573733758E0
1.155536875E1,1.355131989E0,8.074658661E0,4.496200104E0,9.340894527E0
1.156537375E1,1.966760101E0,7.466174011E0,3.646566925E0,8.538697207E0
1.157537775E1,1.910776520E0,6.840475159E0,1.477128296E0,7.254314255E0
1.158538275E1,1.312470703E0,6.687493286E0,4.360432434E-1,6.829002820E0
1.159538675E1,1.840572510E0,7.556735687E0,2.486928406E0,8.165584750E0
1.160539175E1,3.590283966E0,9.203461304E0,2.745141449E0,1.025327462E1
1.161539575E1,4.562512207E0,1.093027039E1,6.015989685E-1,1.185956364E1
1.162540075E1,4.824916534E0,1.216849548E1,1.333726501E-1,1.309083229E1
1.163540475E1,5.396428070E0,1.256801468E1,1.105900269E0,1.372222447E1
1.164540975E1,5.715265045E0,1.184172501E1,1.062490540E0,1.319164856E1
1.165541375E1,5.926775208E0,1.037597305E1,-7.619155884E-2,1.194961448E1
1.166541875E1,6.494394836E0,9.107061768E0,5.221142578E-1,1.119769359E1
1.167542275E1,6.949448547E0,8.148904266E0,1.942660217E0,1.088454889E1
1.168542775E1,7.079677734E0,7.139702911E0,1.751807098E0,1.020617571E1
1.169543175E1,7.184310150E0,6.515051880E0,2.731220398E0,1.007570237E1
1.170543675E1,6.811585236E0,6.833439789E0,2.970123596E0,1.009530717E1
1.171544075E1,5.816304932E0,8.296048279E0,2.316283264E0,1.039321838E1
1.172544575E1,4.797673187E0,9.594298553E0,3.480711823E0,1.127757011E1
1.173544975E1,3.949536896E0,1.006491989E1,3.685336304E0,1.142292247E1
1.174545475E1,3.775149536E0,1.024664200E1,3.183879089E0,1.137464339E1
1.175545875E1,4.129762115E0,1.046503784E1,3.540737000E0,1.179443812E1
1.176546375E1,5.094655609E0,1.081560883E1,3.452420654E0,1.244395911E1
1.177546775E1,6.033802643E0,1.108190506E1,2.744542694E0,1.291309059E1
1.178547275E1,6.480773163E0,1.141556122E1,3.385360107E0,1.355640519E1
1.179547675E1,6.519392853E0,1.172646469E1,3.850442963E0,1.395845150E1
1.180548175E1,6.230493622E0,1.179891403E1,3.286864929E0,1.374179407E1
1.181548575E1,6.309678955E0,1.167467239E1,3.596870270E0,1.374945453E1
1.182549075E1,6.405030670E0,1.160267212E1,4.721631317E0,1.406912295E1
1.183549475E1,6.467600555E0,1.184531754E1,5.444178772E0,1.455267972E1
1.184549975E1,6.926246796E0,1.243688736E1,5.038372650E0,1.510080332E1
1.185550375E1,8.175698547E0,1.380489258E1,4.691992950E0,1.671621679E1
1.186550875E1,9.573940887E0,1.624317215E1,5.845045166E0,1.973994779E1
1.187551275E1,9.552535400E0,1.939486816E1,4.573439484E0,2.209814907E1
1.188551775E1,9.114995270E0,2.240301270E1,2.419718170E0,2.430705973E1
1.189552175E1,9.287885742E0,2.439057953E1,1.639241180E0,2.615056984E1
1.190552675E1,9.932445374E0,2.574825623E1,1.456171875E0,2.763596581E1
1.191553075E1,1.065169968E1,2.630449951E1,1.082249451E0,2.839994128E1
1.192553575E1,1.090751770E1,2.606859009E1,-1.535806274E-1,2.825896174E1
1.193553975E1,1.109537704E1,2.643517776E1,-1.432521057E0,2.870501928E1
1.194554475E1,1.123219254E1,2.733256165E1,-1.889520721E0,2.961083187E1
1.195554875E1,1.085722229E1,2.856135635E1,-1.619482269E0,3.059825282E1
1.196555375E1,1.069525909E1,2.888648026E1,-1.084943848E0,3.082197936E1
1.197555775E1,1.017583923E1,2.814402420E1,-3.540138245E-1,2.992923534E1
1.198556275E1,8.116421814E0,2.654474991E1,9.610015869E-2,2.775804903E1
1.199556675E1,6.083499298E0,2.427232544E1,1.913021851E-1,2.502381551E1
1.200557175E1,3.784579926E0,1.879850830E1,4.269571381E0,1.964525895E1
1.201557575E1,8.187973022E-2,1.062685135E1,1.425410843E1,1.777965919E1
1.202558075E1,-5.138215027E0,2.938389587E0,3.281206696E1,3.334167250E1
1.203558475E1,-4.507726135E0,2.985990601E0,2.375784531E1,2.436536370E1
1.204558975E1,3.742218018E-2,6.350993042E0,-5.180726624E-1,6.372198390E0
1.205559375E1,2.597099304E-1,3.740571442E0,-3.916755066E0,5.422203814E0
1.206559875E1,3.712280273E-2,1.454525299E0,-3.323838043E0,3.628349664E0
1.207560275E1,-1.567240906E-1,-1.785786438E-1,-3.398083649E0,3.406380081E0
1.208560775E1,-5.167254639E-1,-1.118324432E0,-2.523602142E0,2.808241890E0
1.209561175E1,-8.888516235E-1,-1.408121796E0,-1.725461884E0,2.397933050E0
1.210561675E1,-1.027912445E0,-1.688788147E0,-2.027533722E0,2.831872595E0
1.211562075E1,-1.118773499E0,-1.895208893E0,-2.461631012E0,3.301983968E0
1.212562575E1,-1.253343658E0,-1.947001190E0,-2.480641479E0,3.393415110E0
1.213562975E1,-1.498982849E0,-2.049987030E0,-2.362836456E0,3.468773922E0
1.214563475E1,-1.698218536E0,-2.262245636E0,-2.681823120E0,3.897932370E0
1.215563875E1,-1.483714600E0,-2.373614044E0,-3.172652435E0,4.230978152E0
1.216564375E1,-1.166374512E0,-2.323318634E0,-3.298690338E0,4.199952014E0
1.217564775E1,-1.066232758E0,-2.295326843E0,-3.074007568E0,3.981821209E0
1.218565275E1,-1.160686340E0,-2.254162445E0,-3.057092743E0,3.971681904E0
1.219565675E1,-1.221459961E0,-2.169438629E0,-3.030148773E0,3.921763633E0
1.220566175E1,-1.128203888E0,-2.045496368E0,-2.733316040E0,3.595541125E0
1.221566575E1,-1.007255402E0,-1.967807922E0,-2.419119415E0,3.277036803E0
1.222567075E1,-9.985734558E-1,-1.851200409E0,-2.240391083E0,3.073018728E0
1.223567475E1,-1.036594391E0,-1.725461884E0,-1.982926483E0,2.825551996E0
1.224567975E1,-1.068029022E0,-1.616338806E0,-1.711989899E0,2.585371645E0
1.225568375E1,-1.129850464E0,-1.510209503E0,-1.396595764E0,2.346864833E0
1.226568875E1,-1.235830078E0,-1.458566895E0,-1.033750305E0,2.173323046E0
1.227569275E1,-1.362167358E0,-1.468296661E0,-8.165519714E-1,2.162903632E0
1.228569775E1,-1.519939270E0,-1.515598297E0,-7.191046143E-1,2.263706039E0
1.229570175E1,-1.618883514E0,-1.476379852E0,-5.701643372E-1,2.263971880E0
1.230570675E1,-1.663341064E0,-1.357976074E0,-4.848417664E-1,2.201334607E0
1.231571075E1,-1.788331146E0,-1.332379303E0,-3.564088440E-1,2.258404339E0
1.232571575E1,-1.974394226E0,-1.293609924E0,-2.415975952E-1,2.372768129E0
1.233571975E1,-2.114053802E0,-1.172212372E0,-2.089654541E-1,2.426308283E0
1.234572475E1,-2.225272522E0,-1.039737854E0,-2.206411743E-1,2.466084980E0
1.235572875E1,-2.308050385E0,-1.015937347E0,-3.109034729E-1,2.540843608E0
1.236573375E1,-2.231709137E0,-9.310638428E-1,-4.731660461E-1,2.463999119E0
1.237573808E1,-2.130519562E0,-8.749305725E-1,-4.839436340E-1,2.353469471E0
1.238574308E1,-2.046544189E0,-8.496331787E-1,-3.785627747E-1,2.248005657E0
1.239574708E1,-1.929637299E0,-7.587721252E-1,-2.447410583E-1,2.087853785E0
1.240575208E1,-1.620829468E0,-5.887257385E-1,-1.475930786E-1,1.730742579E0
1.241575608E1,-1.248703308E0,-3.598516846E-1,-1.122665405E-1,1.304360749E0
1.242576108E1,-9.457333374E-1,-1.121168518E-1,-1.125659180E-1,9.589853074E-1
1.243576508E1,-7.373666382E-1,8.487350464E-2,-1.348695374E-1,7.543890661E-1
1.244577008E1,-6.297404480E-1,2.016307068E-1,-1.113684082E-1,6.705452230E-1
1.245577408E1,-5.896238708E-1,3.269201660E-1,-1.218466187E-1,6.851129122E-1
1.246577908E1,-5.860313416E-1,4.869374084E-1,-1.511856079E-1,7.767868827E-1
1.247578308E1,-6.628216553E-1,5.809419250E-1,-1.181044006E-1,8.892551470E-1
1.248578808E1,-7.426057434E-1,6.318360901E-1,-8.861572266E-2,9.790469249E-1
1.249579208E1,-7.773335266E-1,6.924600220E-1,-1.166075134E-1,1.047542651E0
1.250579708E1,-8.087681580E-1,8.105644226E-1,-1.907034302E-1,1.160813687E0
1.251580108E1,-9.041198730E-1,9.891430664E-1,-2.835104370E-1,1.369749947E0
1.252580608E1,-1.040486298E0,1.320703583E0,-4.171824646E-1,1.732313741E0
1.253581008E1,-1.249751129E0,1.627715149E0,-5.439688110E-1,2.123025332E0
1.254581508E1,-1.651815033E0,3.597618713E0,1.244362335E0,4.149673593E0
1.255581908E1,-2.956950989E0,7.059320068E0,3.662733307E0,8.484879154E0
1.256582308E1,-4.079167328E0,1.262818954E1,1.484418137E1,1.991131582E1
1.257582808E1,-4.159849548E0,3.587305161E1,4.346496414E1,5.651002820E1
1.258583308E1,3.162323914E0,6.590030960E1,6.208549255E1,9.059503013E1
1.259583708E1,-1.005159760E0,5.483501999E1,8.832532654E0,5.555090815E1
1.260584108E1,-9.011710052E0,5.355383423E1,-1.286484741E1,5.580975164E1
1.261584608E1,-6.756350098E0,6.094276886E1,-1.498309250E1,6.312022183E1
1.262585008E1,7.149133301E-1,5.918332764E1,-1.036714142E1,6.008872600E1
1.263585508E1,1.783196823E1,4.262071976E1,2.209061234E1,5.121035049E1
1.264585908E1,1.564845886E1,2.758957718E1,1.014889526E1,3.330253907E1
1.265586408E1,8.039332123E0,2.416529800E1,-1.462847992E1,2.936979594E1
1.266586808E1,6.668931885E0,1.863265320E1,-1.312081512E1,2.374460375E1
1.267587308E1,7.088209991E0,1.059466827E1,-1.458716583E0,1.283033791E1
1.268587708E1,7.595205688E0,4.827161865E0,9.383087769E0,1.300119138E1
1.269588208E1,6.972799988E0,5.848038940E0,4.930147705E0,1.035016210E1
1.270588608E1,6.831793213E0,7.487878876E0,-7.035369873E-2,1.013640361E1
1.271589108E1,6.828200684E0,8.222401428E0,1.727407837E-1,1.068934279E1
1.272589508E1,7.237449646E0,9.028325500E0,2.307301941E0,1.179893982E1
1.273590008E1,7.984995117E0,1.036519547E1,3.680097198E0,1.359192920E1
1.274590408E1,8.035889282E0,1.132499954E1,3.195854187E0,1.424937245E1
1.275590908E1,6.740034027E0,1.124282043E1,2.147883453E0,1.328316503E1
1.276591308E1,4.572990417E0,1.042072998E1,2.021546173E0,1.155813582E1
1.277591808E1,2.353256378E0,8.603359222E0,3.169209595E0,9.465700975E0
1.278592208E1,4.941224670E-1,6.551575928E0,4.411476288E0,7.913812431E0
1.279592708E1,-2.234852600E-1,5.396278381E0,4.629722443E0,7.113655595E0
1.280593108E1,-1.288819885E-1,4.529431000E0,4.362378387E0,6.289888786E0
1.281593608E1,2.556683350E-1,3.851041718E0,4.077371063E0,5.614342650E0
1.282594008E1,5.385800171E-1,3.230432281E0,3.564836884E0,4.840849426E0
1.283594508E1,7.867639160E-1,2.445165253E0,2.720442810E0,3.741475599E0
1.284594908E1,1.028211823E0,1.720971222E0,1.520687714E0,2.516237791E0
1.285595408E1,1.197360077E0,1.037941589E0,2.534230042E-1,1.604748303E0
1.286595808E1,1.161734161E0,4.382885742E-1,-9.003776550E-1,1.533754562E0
1.287596308E1,1.152004395E0,1.306782532E-1,-1.914069672E0,2.237823415E0
1.288596708E1,9.550140381E-1,-1.293310547E-1,-2.564616852E0,2.739714936E0
1.289597208E1,3.995191956E-1,-6.978488159E-1,-1.926942902E0,2.087993655E0
1.290597608E1,1.347198486E-1,-8.807684326E-1,-1.073567505E0,1.395152199E0
1.291598108E1,7.529342651E-2,-8.307723999E-1,-6.011499023E-1,1.028218404E0
1.292598508E1,3.487747192E-2,-8.071215820E-1,-2.496807861E-1,8.455780160E-1
1.293599008E1,5.867797852E-2,-7.689509583E-1,2.170486450E-2,7.714919199E-1
1.294599408E1,1.770817566E-1,-5.637277222E-1,9.145980835E-2,5.979228962E-1
1.295599908E1,4.394860840E-1,4.400848389E-2,1.380130005E-1,4.627443711E-1
1.296600308E1,5.215155029E-1,6.887178040E-1,8.921447754E-2,8.684871077E-1
1.297600808E1,6.991960144E-1,1.248254242E0,-1.646575928E-1,1.440182572E0
1.298601208E1,2.061363373E0,6.371201019E0,2.233355713E-1,6.700097026E0
1.299601708E1,4.611610107E0,2.074610825E1,2.999013519E0,2.146303886E1
1.300602108E1,6.144572296E0,3.262854858E1,5.313201141E0,3.362451573E1
1.301602608E1,5.833668823E0,3.598471939E1,3.340902557E0,3.660728550E1
1.302603008E1,4.500092010E0,3.531965240E1,1.119821320E0,3.562278307E1
1.303603508E1,3.480412445E0,3.405672867E1,1.890119476E0,3.428624491E1
1.304603908E1,9.482780457E-1,2.361144974E1,8.549171906E0,2.512942757E1
1.305604408E1,-2.156715088E0,1.134161499E1,1.959769638E1,2.274540292E1
1.306604808E1,-2.050436096E0,6.598578186E0,1.271186554E1,1.446848464E1
1.307605308E1,-4.587959290E-1,6.545289001E0,1.604214020E0,6.754613567E0
1.308605708E1,2.803669739E-1,7.032076721E0,-1.492845612E0,7.194254421E0
1.309606208E1,5.155279541E-1,6.217620392E0,-1.729802856E0,6.474317750E0
1.310606608E1,7.710466003E-1,4.782105560E0,-1.882485352E0,5.196806476E0
1.311607108E1,1.007105713E0,3.236120453E0,-1.858086090E0,3.865128901E0
1.312607508E1,1.068478088E0,2.054926758E0,-1.776206360E0,2.918780300E0
1.313608008E1,1.134939880E0,1.601968689E0,-2.047741699E0,2.836835963E0
1.314608408E1,1.281485138E0,1.371597748E0,-2.433190155E0,3.073092721E0
1.315608908E1,1.517843628E0,1.415606232E0,-2.277813263E0,3.081594318E0
1.316609308E1,1.736838226E0,2.777623901E0,-1.759890289E0,3.718738414E0
1.317609808E1,2.238295441E0,5.235213318E0,-8.743318176E-1,5.760371610E0
1.318610208E1,3.399131470E0,7.998916168E0,1.137933655E0,8.765366371E0
1.319610708E1,5.139861603E0,1.063493454E1,4.248614960E0,1.255271839E1
1.320611108E1,6.180647278E0,1.181088913E1,5.788612518E0,1.453291222E1
1.321611608E1,6.011648712E0,1.145448029E1,6.452481995E0,1.445612544E1
1.322612008E1,4.824617157E0,1.031040939E1,6.755751343E0,1.323713144E1
1.323612508E1,2.292333069E0,8.079897766E0,3.689826965E0,9.173568654E0
1.324612908E1,3.704795837E-1,5.720653839E0,1.641336823E0,5.962979292E0
1.325613408E1,-7.550299072E-1,4.027824097E0,1.554217987E0,4.382810818E0
1.326613808E1,-1.483265533E0,3.030448151E0,1.654210052E0,3.757672622E0
1.327614308E1,-1.498084717E0,2.845881958E0,6.408174133E-1,3.279321408E0
1.328614708E1,-7.746391296E-1,2.831960907E0,-8.180488586E-1,3.047830752E0
1.329615108E1,-4.355941772E-1,2.616558838E0,-5.571414185E-1,2.710448118E0
1.330615608E1,-3.411405945E-1,3.501368866E0,1.375938721E0,3.777455255E0
1.331616008E1,3.442840576E-1,7.082671509E0,7.937543793E0,1.064365392E1
1.332616508E1,1.793420563E0,1.099792969E1,1.334624634E1,1.738657833E1
1.333616908E1,2.805166626E0,8.716823273E0,4.777315521E0,1.032834504E1
1.334617408E1,2.327210541E0,5.508694611E0,-3.237018585E0,6.799993716E0
1.335617808E1,1.022074585E0,5.402714996E0,-4.587360535E0,7.160854870E0
1.336618308E1,7.458988953E-1,7.269033966E0,-5.435646515E0,9.107220926E0
1.337619096E1,2.091600494E0,1.101469482E1,-7.255561981E0,1.335445523E1
1.338619596E1,7.354206848E0,1.580982330E1,-2.206561432E0,1.757565887E1
1.339619996E1,1.586475906E1,2.124247604E1,1.170880142E1,2.898326068E1
1.340620496E1,1.204155945E1,1.959530136E1,1.191522217E0,2.303029992E1
1.341620896E1,7.788753204E0,1.511661484E1,-5.528603210E0,1.788133591E1
1.342621396E1,8.745713196E0,1.254556137E1,-8.622070313E-1,1.531737609E1
1.343621796E1,1.068867279E1,1.084824097E1,1.563199310E0,1.530933213E1
1.344622296E1,1.155117920E1,8.503217468E0,1.917961578E0,1.447111001E1
1.345622696E1,1.185669388E1,5.448220367E0,7.034172363E0,1.482376051E1
1.346623196E1,1.221070770E1,1.810036011E0,9.515412598E0,1.558591319E1
1.347623596E1,9.223369904E0,2.612367554E0,5.325176239E0,1.096597094E1
1.348624096E1,7.942782898E0,7.637268219E0,4.605622559E0,1.194267245E1
1.349624496E1,9.291328583E0,9.339378662E0,3.050207062E0,1.352244592E1
1.350624996E1,1.028915359E1,8.050858154E0,2.067650299E0,1.322717568E1
1.351625396E1,1.046174469E1,6.646927643E0,1.535806274E0,1.248953362E1
1.352625896E1,9.983189850E0,6.136189728E0,1.193168793E0,1.177881810E1
1.353626296E1,9.985584869E0,6.588099976E0,1.643731842E0,1.207546359E1
1.354626796E1,1.003917343E1,7.373367004E0,2.493365021E0,1.270308676E1
1.355627196E1,1.001791763E1,8.166417847E0,2.742447052E0,1.321249674E1
1.356627696E1,9.564809875E0,8.958720245E0,3.189567261E0,1.348768311E1
1.357628096E1,8.808881836E0,9.721533966E0,3.992347870E0,1.371289406E1
1.358628596E1,8.167016602E0,1.035860916E1,5.330265656E0,1.422718088E1
1.359628996E1,7.431745605E0,1.060589493E1,4.992418213E0,1.387948449E1
1.360629496E1,7.095993805E0,1.052206924E1,5.083578644E0,1.367149740E1
1.361629896E1,7.708220673E0,1.038794815E1,4.656367035E0,1.374801392E1
1.362630396E1,8.805289307E0,1.018811371E1,4.201762390E0,1.410622515E1
1.363630796E1,1.015443375E1,1.035471725E1,4.195176086E0,1.509742351E1
1.364631296E1,1.174308014E1,1.089838669E1,3.864064636E0,1.648046598E1
1.365631696E1,1.355146957E1,1.194426178E1,4.607418823E0,1.864231813E1
1.366632196E1,1.568498291E1,1.364697098E1,5.214256897E0,2.143471438E1
1.367632596E1,1.727856903E1,1.616383713E1,4.412374420E0,2.406839476E1
1.368632996E1,1.787507858E1,1.905133255E1,3.674858093E0,2.638136252E1
1.369633496E1,1.719429428E1,2.158990356E1,2.675386505E0,2.772950387E1
1.370633896E1,1.593256805E1,2.296988388E1,1.772763519E0,2.801080115E1
1.371634396E1,1.474628494E1,2.335982300E1,1.231339417E0,2.765231359E1
1.372634796E1,1.365670074E1,2.324486206E1,8.090675354E-1,2.697190534E1
1.373635296E1,1.268028122E1,2.315834198E1,1.550775146E-1,2.640307528E1
1.374635696E1,1.266546204E1,2.392235321E1,-8.397537231E-2,2.706843113E1
1.375636196E1,1.309970901E1,2.439866272E1,-3.230282593E-1,2.769479132E1
1.376636596E1,1.321945999E1,2.422696976E1,-1.330583038E0,2.763097243E1
1.377637096E1,1.226294907E1,2.298305649E1,-2.140399017E0,2.613775264E1
1.378637496E1,1.005968079E1,2.064925964E1,-1.042581940E0,2.299295715E1
1.379637996E1,7.453600159E0,1.659509033E1,1.465602264E0,1.825105938E1
1.380638396E1,3.403472443E0,1.003872437E1,9.832303619E0,1.445800145E1
1.381638896E1,-1.945953369E-3,4.342619476E0,1.685165680E1,1.740220344E1
1.382639296E1,-3.924838257E-1,9.657916260E-1,1.978540604E1,1.981285161E1
1.383639796E1,1.197060699E0,1.346749420E0,1.158485916E1,1.172414816E1
1.384640196E1,2.482737122E0,3.775299225E0,-1.856589203E0,4.885057965E0
1.385640696E1,1.757644958E0,2.750829620E0,-3.851490784E0,5.048797942E0
1.386641096E1,3.634442139E-1,4.987628174E-1,-3.051105194E0,3.112892377E0
1.387641596E1,-5.318440247E-1,-7.958949280E-1,-1.867815857E0,2.098819401E0
1.388641996E1,-6.230044556E-1,-1.041683807E0,-9.867480469E-1,1.564260661E0
1.389642496E1,-6.538403320E-1,-1.150956573E0,-7.936495972E-1,1.543401405E0
1.390642896E1,-6.180647278E-1,-1.266815643E0,-8.761280823E-1,1.659646438E0
1.391643396E1,-5.602848816E-1,-1.393901367E0,-1.081351318E0,1.850999958E0
1.392643796E1,-6.098318481E-1,-1.550326080E0,-1.242566071E0,2.078310919E0
1.393644296E1,-8.253836060E-1,-1.759890289E0,-1.551224213E0,2.486919477E0
1.394644696E1,-1.131796417E0,-1.973047028E0,-2.083816681E0,3.084828952E0
1.395645196E1,-1.132395172E0,-2.099084930E0,-2.351759491E0,3.349514752E0
1.396645596E1,-1.159039764E0,-2.122286682E0,-2.454296265E0,3.445438157E0
1.397646096E1,-1.264869690E0,-2.080673218E0,-2.769989777E0,3.688080766E0
1.398646496E1,-1.268462219E0,-1.976789246E0,-3.110082550E0,3.897345968E0
1.399646996E1,-1.398242340E0,-1.943558350E0,-3.526666260E0,4.262613706E0
1.400647396E1,-1.523531799E0,-1.902693329E0,-3.727249146E0,4.453512910E0
1.401647896E1,-1.513352966E0,-1.866917725E0,-3.514840851E0,4.257901502E0
1.402648296E1,-1.571581879E0,-1.872456207E0,-3.259322205E0,4.074204595E0
1.403648796E1,-1.696571960E0,-1.880240021E0,-2.928061066E0,3.871330593E0
1.404649196E1,-1.849703522E0,-1.805695038E0,-2.664309540E0,3.712207296E0
1.405649696E1,-1.955084381E0,-1.658850403E0,-2.302212524E0,3.445913827E0
1.406650096E1,-2.052382050E0,-1.494192810E0,-2.042951660E0,3.258609476E0
1.407650596E1,-2.175426178E0,-1.312470703E0,-1.891766052E0,3.167623273E0
1.408650996E1,-2.364932098E0,-1.091979218E0,-1.762285309E0,3.144991566E0
1.409651396E1,-2.424059143E0,-8.162525940E-1,-1.612746277E0,3.023785968E0
1.410651896E1,-2.409689026E0,-4.828958130E-1,-1.504072266E0,2.881323125E0
1.411652396E1,-2.392923889E0,-1.401086426E-1,-1.407523041E0,2.779718741E0
1.412652796E1,-2.511627045E0,-3.338058472E-2,-1.291364594E0,2.824359607E0
1.413653196E1,-2.694995728E0,-6.676116943E-2,-1.301543427E0,2.993572167E0
1.414653696E1,-2.907703400E0,-1.228944397E-1,-1.231788483E0,3.160244448E0
1.415654096E1,-3.005150757E0,-2.624043274E-1,-1.160836029E0,3.232232570E0
1.416654596E1,-2.830613708E0,-4.547543335E-1,-1.074315948E0,3.061589494E0
1.417654996E1,-2.517614594E0,-6.670129395E-1,-8.622070313E-1,2.743481450E0
1.418655496E1,-2.165097656E0,-8.433462524E-1,-6.093827820E-1,2.402129917E0
1.419655896E1,-1.736089783E0,-9.610015869E-1,-4.120930481E-1,2.026660421E0
1.420656396E1,-1.360371094E0,-9.782157898E-1,-2.619552612E-1,1.695917511E0
1.421656796E1,-1.047521667E0,-9.843530273E-1,-1.492396545E-1,1.445173000E0
1.422657296E1,-7.688012695E-1,-9.493258667E-1,-3.338058472E-2,1.222043067E0
1.423657696E1,-4.963677979E-1,-8.427474976E-1,1.378633118E-1,9.877300381E-1
1.424658196E1,-2.236349487E-1,-7.728428650E-1,2.161505127E-1,8.330784647E-1
1.425658596E1,9.960287476E-1,-6.029461670E-1,3.517684937E-1,1.216288789E0
1.426659096E1,2.647394714E0,-3.293151855E-3,1.215472412E0,2.913088190E0
1.427659496E1,1.322649536E0,7.738906860E-2,1.260079651E0,1.828439660E0
1.428659996E1,3.234773254E-1,-5.792953491E-2,9.589059448E-1,1.013653798E0
1.429660396E1,5.179229736E-2,-1.245410156E-1,7.884104919E-1,7.998649951E-1
1.430660896E1,-1.049317932E-1,4.236190796E-2,5.896238708E-1,6.003844781E-1
1.431661296E1,-2.643502808E-1,3.034190369E-1,5.782475281E-1,7.044958386E-1
1.432661796E1,1.346450043E0,4.456682281E0,1.041189835E1,1.140537469E1
1.433662196E1,3.022215271E0,1.221444992E1,2.708288086E1,2.986317143E1
1.434662696E1,1.637594604E0,1.478071335E1,2.862662064E1,3.225886874E1
1.435663096E1,-1.269959106E0,2.655447968E1,2.628683624E1,3.738650755E1
1.436663596E1,2.020648041E0,2.936593323E1,1.567121155E1,3.334708269E1
1.437663583E1,2.611020355E0,2.142689255E1,-6.163582764E0,2.244813810E1
1.438664083E1,-3.573069763E-1,3.573608643E1,-3.693868561E0,3.592826473E1
1.439664483E1,-3.054697723E0,4.850213928E1,-5.805976410E0,4.894382551E1
1.440664983E1,-9.758207703E-1,5.382402237E1,-4.337530060E0,5.400733077E1
1.441665383E1,6.214776306E0,6.612484268E1,1.409124710E1,6.789463535E1
1.442665883E1,1.349623444E1,6.666596741E1,5.663173370E0,6.825372581E1
1.443666283E1,1.500704269E1,4.585309799E1,-7.178172913E0,4.877749576E1
1.444666783E1,1.255124954E1,2.541010941E1,3.439248047E0,2.854883452E1
1.445667183E1,9.599088593E0,1.826157486E1,8.530011749E0,2.232462135E1
1.446667683E1,7.087760925E0,1.643956375E1,2.050735474E-1,1.790356575E1
1.447668083E1,5.716013489E0,1.457593918E1,-9.827064514E-1,1.568746395E1
1.448668583E1,4.947361908E0,1.295346313E1,1.866318970E0,1.399113089E1
1.449668983E1,4.345463562E0,1.272578659E1,2.617007904E0,1.369954117E1
1.450669383E1,2.895728302E0,1.402089340E1,1.977687378E0,1.445274858E1
1.451669883E1,1.403930511E0,1.567300781E1,1.325792999E0,1.579151424E1
1.452670283E1,1.041833496E0,1.629481476E1,7.774832153E-1,1.634658635E1
1.453670783E1,9.247769165E-1,1.552242096E1,5.465135193E-1,1.555954504E1
1.454671183E1,6.839277649E-1,1.415441574E1,8.943901062E-1,1.419912588E1
1.455671683E1,3.761677551E-1,1.189740921E1,2.204465790E0,1.210576381E1
1.456672083E1,1.411564636E-1,9.369166718E0,3.583697662E0,1.003215326E1
1.457672583E1,1.064286804E-1,7.133415985E0,4.264332275E0,8.311526962E0
1.458672983E1,2.451901245E-1,5.148094482E0,4.597838745E0,6.906744249E0
1.459673483E1,4.351451111E-1,3.454516296E0,4.980592804E0,6.076951439E0
1.460673883E1,7.283853149E-1,1.909129944E0,5.143005066E0,5.534060301E0
1.461674383E1,1.091081085E0,4.555027771E-1,4.583169250E0,4.733221006E0
1.462674783E1,1.299896851E0,-4.123924255E-1,2.913391571E0,3.216776303E0
1.463675283E1,1.219963074E0,-9.403445435E-1,7.827223206E-1,1.727776604E0
1.464675683E1,9.229806519E-1,-1.191821594E0,-1.300794983E0,1.991080004E0
1.465676183E1,5.863307190E-1,-1.190624084E0,-2.449805603E0,2.786201162E0
1.466676583E1,5.295986938E-1,-1.011296997E0,-2.695145416E0,2.926944688E0
1.467677083E1,4.884342957E-1,-8.888516235E-1,-1.946851501E0,2.195189294E0
1.468677483E1,4.397854614E-1,-9.430389404E-1,-1.557810516E0,1.873367903E0
1.469677983E1,3.764671326E-1,-1.097218323E0,-1.144819336E0,1.629793503E0
1.470678383E1,4.453239441E-1,-1.108295288E0,-7.571255493E-1,1.414167938E0
1.471678883E1,4.917274475E-1,-1.086440735E0,-5.059478760E-1,1.295427577E0
1.472679283E1,5.044509888E-1,-1.066232758E0,-1.990859985E-1,1.196226704E0
1.473679783E1,5.022056580E-1,-1.086291046E0,5.837860107E-2,1.198184802E0
1.474680183E1,4.349954224E-1,-1.052910461E0,2.248324585E-1,1.161202434E0
1.475680683E1,2.642005920E-1,-1.090482330E0,7.825726318E-1,1.367981575E0
1.476681083E1,-3.811074829E-1,-1.541344757E0,2.828667755E0,3.243816863E0
1.477681583E1,-6.753955078E-1,2.221380615E-1,3.472778320E0,3.544812220E0
1.478681983E1,1.675016785E-1,1.983225861E0,1.399439850E0,2.433037920E0
1.479682483E1,2.393522644E-1,1.191222839E0,-4.802014160E-1,1.306481825E0
1.480682883E1,2.239343262E-1,9.719288635E-1,-9.985734558E-1,1.411361486E0
1.481683383E1,2.435435486E-1,1.239871674E0,-1.136885834E0,1.699736634E0
1.482683783E1,3.620970154E-1,2.224673767E0,-1.712738342E0,2.830858571E0
1.483684183E1,-3.963757324E-1,7.176975403E0,-2.640509033E0,7.657569955E0
1.484684683E1,-3.253035278E0,2.494906815E1,-2.692451019E0,2.530390350E1
1.485685083E1,-6.944808197E0,3.575360001E1,-1.907932434E0,3.647177649E1
1.486685583E1,-8.410859528E0,3.714750137E1,-2.108665009E0,3.814611231E1
1.487685983E1,-1.065678909E1,4.118086395E1,-2.091750183E0,4.258880285E1
1.488686483E1,-1.129536118E1,4.400534042E1,-2.146386566E0,4.548254770E1
1.489686883E1,-7.985893250E0,3.872102921E1,-9.421408081E-1,3.954718982E1
1.490687383E1,-5.715564423E0,2.411904419E1,8.726403351E0,2.627824356E1
1.491687783E1,-3.225941620E0,1.011521530E1,2.541609695E1,2.754455054E1
1.492688283E1,-3.206781464E0,6.543941803E0,1.753618332E1,1.899011182E1
1.493688683E1,-2.884651337E0,7.080126801E0,5.277425537E0,9.289813192E0
1.494689183E1,-1.931134186E0,6.087690582E0,7.258406067E-1,6.427760143E0
1.495689583E1,-1.161584473E0,5.023852844E0,-1.304537201E0,5.318852620E0
1.496690083E1,-6.927593994E-1,3.814367981E0,-2.279160461E0,4.497098074E0
1.497690483E1,-3.062631226E-1,2.914589081E0,-2.863694916E0,4.097484006E0
1.498690983E1,1.167572021E-1,2.213147736E0,-3.618874512E0,4.243572537E0
1.499691383E1,4.815486145E-1,1.209634552E0,-4.088448029E0,4.290747266E0
1.500691883E1,6.330335999E-1,2.730322266E-1,-3.967948608E0,4.027392990E0
1.501692283E1,6.376739502E-1,-1.037342834E-1,-3.705095215E0,3.760999790E0
1.502692783E1,5.276527405E-1,-1.055305481E-1,-3.150348816E0,3.195974307E0
1.503693183E1,1.901046753E-1,7.469467163E-2,-2.384990387E0,2.393720583E0
1.504693683E1,-2.950364685E-1,6.277944946E-1,-1.830693054E0,1.957705163E0
1.505694083E1,-6.141728210E-1,1.983375549E0,-1.636397095E0,2.643630510E0
1.506694583E1,-9.520202637E-1,3.958518219E0,-1.698517914E0,4.411481857E0
1.507694983E1,-1.581760712E0,7.092550964E0,-1.503922577E0,7.420783601E0
1.508695483E1,-2.216590576E0,1.059167450E1,-1.293460236E0,1.089815956E1
1.509695883E1,-2.826721802E0,1.370549927E1,-1.208736420E0,1.404607098E1
1.510696383E1,-3.458857269E0,1.601444778E1,-6.957531738E-1,1.639848481E1
1.511696783E1,-2.479294281E0,2.030632278E1,7.227869568E0,2.169644542E1
1.512697283E1,-6.724017334E-1,2.317046677E1,1.860301483E1,2.972195847E1
1.513697683E1,-2.946921844E0,1.606683884E1,1.102741837E1,1.970866851E1
1.514698183E1,-4.594246216E0,1.069585785E1,4.674479370E0,1.254429077E1
1.515698583E1,-5.589825897E0,7.182813263E0,3.277284851E0,9.673652667E0
1.516699083E1,-6.698420563E0,4.187242584E0,2.564018097E0,8.305180750E0
1.517699483E1,-6.470145264E0,2.515818329E0,1.081800385E0,7.025839001E0
1.518699983E1,-5.082830200E0,1.848206635E0,7.755372620E-1,5.463743099E0
1.519700383E1,-3.798051910E0,1.852846985E0,2.056723022E0,4.699824449E0
1.520700883E1,-2.121987305E0,2.319277039E0,3.280128937E0,4.543250152E0
1.521701283E1,-2.900967407E-1,3.029250641E0,2.450853424E0,3.907326205E0
1.522701683E1,7.220983887E-1,3.797453156E0,9.232800293E-1,3.974232324E0
1.523702183E1,6.261479187E-1,4.814588013E0,4.920268250E-1,4.880000957E0
1.524702583E1,7.023394775E-1,6.122568054E0,1.457219696E0,6.332662123E0
1.525703083E1,4.417314148E-1,7.631430359E0,2.273023224E0,7.974991570E0
1.526703483E1,1.413061523E-1,9.135053558E0,2.588267670E0,9.495699051E0
1.527703983E1,5.388793945E-1,1.105600891E1,2.378703461E0,1.132183528E1
1.528704383E1,2.718197479E0,1.374920837E1,1.610201569E0,1.410751848E1
1.529704883E1,5.218597870E0,1.604737930E1,1.400787048E0,1.693264157E1
1.530705283E1,6.005511475E0,1.764410889E1,2.191891937E0,1.876659630E1
1.531705783E1,6.333329773E0,1.887514893E1,2.391127625E0,2.005242639E1
1.532706183E1,6.987469482E0,1.979797989E1,1.141376495E0,2.102587638E1
1.533706683E1,7.147037659E0,1.910986084E1,1.188378754E0,2.043720071E1
1.534707083E1,6.304290161E0,1.630574203E1,2.325713654E0,1.763604949E1
1.535707583E1,5.554050293E0,1.287667282E1,1.451531525E0,1.409833754E1
1.536707983E1,4.903652802E0,9.506880341E0,1.635349274E0,1.082131932E1
1.537708471E1,4.698579254E0,6.948400726E0,3.980821838E0,9.284603501E0
1.538708871E1,4.309987335E0,4.911735992E0,4.242028656E0,7.790760451E0
1.539709371E1,3.065325623E0,4.246968384E0,3.616030426E0,6.364639634E0
1.540709771E1,2.797831879E0,5.839057617E0,3.879781952E0,7.548189523E0
1.541710271E1,4.014352112E0,8.293952637E0,2.991678772E0,9.687869482E0
1.542710671E1,4.873715057E0,1.004261627E1,1.902094574E0,1.132365682E1
1.543711171E1,5.012925568E0,1.153576126E1,1.408421173E0,1.265649481E1
1.544711571E1,5.260959778E0,1.309896057E1,1.122964783E0,1.416056199E1
1.545712071E1,5.128934326E0,1.405771683E1,9.759704590E-1,1.499592905E1
1.546712471E1,4.495301971E0,1.395443161E1,1.483265533E0,1.473546667E1
1.547712971E1,3.730093231E0,1.287083496E1,2.264490967E0,1.359043441E1
1.548713371E1,3.061433716E0,1.114073273E1,2.934497681E0,1.192055279E1
1.549713871E1,2.665507050E0,9.607022095E0,3.664828949E0,1.062218304E1
1.550714271E1,2.510878601E0,8.817114716E0,3.639232178E0,9.863571062E0
1.551714671E1,2.514920197E0,8.240513763E0,3.300935669E0,9.226433058E0
1.552715171E1,2.319127350E0,7.695796509E0,3.773353271E0,8.879292229E0
1.553715571E1,2.304906921E0,7.801626434E0,4.865482178E0,9.478970817E0
1.554716071E1,2.412084045E0,8.672964478E0,4.753814392E0,1.018023642E1
1.555716471E1,2.212548981E0,1.003064117E1,5.374573517E0,1.159289333E1
1.556716971E1,2.547402649E0,1.227582230E1,5.609734497E0,1.373514450E1
1.557717371E1,4.097878418E0,1.596490082E1,5.088069305E0,1.724990188E1
1.558717871E1,6.041736145E0,2.112631760E1,6.608008575E0,2.294536224E1
1.559718271E1,6.794969788E0,2.614133881E1,6.236630859E0,2.772069215E1
1.560718771E1,6.598727875E0,2.923106369E1,4.402944031E0,3.028835106E1
1.561719171E1,6.782545624E0,3.058724350E1,3.546425171E0,3.153029530E1
1.562719671E1,7.269632721E0,3.080219650E1,3.998185730E0,3.189997427E1
1.563720071E1,6.870861969E0,2.817381226E1,2.942730560E0,2.914844943E1
1.564720571E1,5.311554565E0,2.501822433E1,1.039737854E0,2.559697669E1
1.565720971E1,4.332590332E0,2.370470581E1,7.816744995E-1,2.411006909E1
1.566721471E1,3.783981171E0,2.378658554E1,5.983058167E-1,2.409311385E1
1.567721871E1,3.350931702E0,2.413101929E1,-1.543290710E-1,2.436305918E1
1.568722371E1,2.220482483E0,2.491733414E1,-6.920109558E-1,2.502564609E1
1.569722771E1,1.199006653E0,2.587399475E1,-8.089178467E-1,2.591438923E1
1.570723271E1,6.051914978E-1,2.501403305E1,-3.570075989E-1,2.502389979E1
1.571723671E1,-2.168989563E-1,2.139156601E1,1.435664520E0,2.144078530E1
1.572724171E1,-9.470805359E-1,1.557136917E1,5.793851624E0,1.664131053E1
1.573724571E1,-1.198108521E0,7.993078308E0,1.487157440E1,1.692597087E1
1.574725071E1,-2.604583740E-1,4.320914612E0,1.747032028E1,1.799861751E1
1.575725471E1,1.005459137E0,3.919150085E0,1.360475876E1,1.419366571E1
1.576725971E1,1.095571747E0,1.397344208E0,1.196057785E1,1.209166121E1
1.577726371E1,1.854044495E0,7.638615417E-1,1.461111603E0,2.481091002E0
1.578726871E1,1.603914642E0,-6.780899048E-1,-2.615810394E0,3.142421378E0
1.579727271E1,5.899232483E-1,-1.545985107E0,-2.965333557E0,3.395774212E0
1.580727671E1,-4.745132446E-2,-1.381477203E0,-2.600542145E0,2.945089190E0
1.581728171E1,-2.239343262E-1,-1.206491089E0,-2.401605835E0,2.696938619E0
1.582728571E1,-3.308120728E-1,-1.192120972E0,-1.910028076E0,2.275696880E0
1.583729071E1,-3.586541748E-1,-1.294358368E0,-1.827998657E0,2.268386099E0
1.584729471E1,-5.041516113E-1,-1.435963898E0,-1.748064880E0,2.317734236E0
1.585729971E1,-6.517446899E-1,-1.568887482E0,-1.849703522E0,2.511490034E0
1.586730371E1,-7.514373779E-1,-1.623074799E0,-2.086361389E0,2.748078198E0
1.587730871E1,-8.262817383E-1,-1.694476318E0,-2.356100464E0,3.017482544E0
1.588731271E1,-9.337582397E-1,-1.857786713E0,-2.729124756E0,3.430947078E0
1.589731771E1,-1.196162567E0,-2.073937225E0,-3.334465942E0,4.104958419E0
1.590732171E1,-1.204395447E0,-2.054028625E0,-3.539988556E0,4.266277178E0
1.591732671E1,-1.037342834E0,-1.979184265E0,-3.449127502E0,4.109711795E0
1.592733071E1,-8.619076538E-1,-1.869013367E0,-3.222798157E0,3.823940864E0
1.593733571E1,-8.434959412E-1,-1.769769745E0,-2.906505890E0,3.505901716E0
1.594733971E1,-9.331594849E-1,-1.695224762E0,-2.425406342E0,3.102768045E0
1.595734471E1,-1.038690033E0,-1.627715149E0,-2.048789520E0,2.815292541E0
1.596734871E1,-1.137634277E0,-1.451830902E0,-1.778751068E0,2.562416843E0
1.597735371E1,-1.286574554E0,-1.156794434E0,-1.446292419E0,2.255040844E0
1.598735771E1,-1.399888916E0,-5.685177612E-1,-1.103355560E0,1.870907511E0
1.599736271E1,-1.445543976E0,3.158432007E-2,-1.173858948E0,1.862401617E0
1.600736671E1,-1.495390320E0,2.854563904E-1,-1.359922028E0,2.041339139E0
1.601737171E1,-1.547481995E0,4.884342957E-1,-1.401535492E0,2.144194562E0
1.602737571E1,-1.739233246E0,4.843927002E-1,-1.549427948E0,2.379137562E0
1.603738071E1,-1.843566284E0,3.939807129E-1,-1.617236938E0,2.483830260E0
1.604738471E1,-1.876497803E0,2.421963501E-1,-1.506467285E0,2.418542279E0
1.605738971E1,-1.882485352E0,9.475296021E-2,-1.391206970E0,2.342687785E0
1.606739371E1,-1.775607605E0,-6.616241455E-2,-1.253493347E0,2.174489688E0
1.607739871E1,-1.639390869E0,-2.564167786E-1,-1.131646729E0,2.008476115E0
1.608740271E1,-1.581311646E0,-4.950205994E-1,-1.063388672E0,1.968854332E0
1.609740771E1,-1.490001526E0,-6.878196716E-1,-9.618997192E-1,1.902222783E0
1.610741171E1,-1.395248566E0,-8.306227112E-1,-8.316705322E-1,1.824370720E0
1.611741571E1,-1.324894867E0,-9.828561401E-1,-6.644682312E-1,1.778446128E0
1.612742071E1,-1.152902527E0,-1.028511200E0,-5.530998230E-1,1.641017653E0
1.613742471E1,-8.800199890E-1,-9.825567627E-1,-4.399351501E-1,1.390466076E0
1.614742971E1,-6.029461670E-1,-9.042695618E-1,-3.694317627E-1,1.147923058E0
1.615743371E1,-3.763174438E-1,-8.009843445E-1,-3.341052246E-1,9.459476940E-1
1.616743871E1,-2.023791504E-1,-7.171586609E-1,-3.061134338E-1,8.055925147E-1
1.617744271E1,-6.855743408E-2,-6.792874146E-1,-3.754193115E-1,7.791477221E-1
1.618744771E1,1.549278259E-1,-8.840615845E-1,-1.112785950E0,1.429636348E0
1.619745171E1,5.427713013E-1,-1.130299530E0,-1.944157104E0,2.313422694E0
1.620745671E1,6.101312256E-1,-7.479945374E-1,-2.113005981E0,2.323047614E0
1.621746071E1,-1.919009399E-1,4.794529724E-1,-1.107097778E0,1.221624580E0
1.622746571E1,-9.854008484E-1,1.256337433E0,-4.278103638E-1,1.653003413E0
1.623746971E1,-1.400637360E0,1.882784729E0,-1.724414062E-1,2.352955458E0
1.624747471E1,-1.431024170E0,5.763015747E0,6.604565735E0,8.881467740E0
1.625747871E1,1.392554169E0,1.761836243E1,4.261607941E1,4.613541076E1
1.626748371E1,4.110003204E0,3.570420273E1,7.340585175E1,8.173188661E1
1.627748771E1,-7.407496033E0,4.282818832E1,1.365235977E1,4.555778353E1
1.628749271E1,-1.599019821E1,4.156301926E1,-1.246667542E1,4.624488085E1
1.629749671E1,-1.700823120E1,4.916002121E1,-1.236892868E1,5.346941192E1
1.630750171E1,-7.151378632E0,5.733092972E1,-2.138333313E1,6.160539469E1
1.631750571E1,1.649270325E0,5.673157608E1,-1.498039810E1,5.869926869E1
1.632751071E1,1.221894058E1,5.000456497E1,2.750949371E1,5.836549727E1
1.633751471E1,1.543739777E1,3.643109116E1,2.657229263E1,4.766156091E1
1.634751971E1,9.170529785E0,2.609942596E1,-1.235351074E1,3.029666450E1
1.635752371E1,9.232201538E0,1.846200806E1,1.635498962E0,2.070637930E1
1.636752871E1,1.054751633E1,1.412208298E1,1.157468033E1,2.108688106E1
1.637753333E1,7.580685883E0,1.384815262E1,6.833290100E-1,1.580205898E1
1.638753733E1,5.379213867E0,1.352841751E1,1.911375275E0,1.468357510E1
1.639754233E1,2.959046631E0,1.605142090E1,2.666854248E0,1.653832463E1
1.640754633E1,-6.914122009E-1,2.043954575E1,-3.143463135E-3,2.045123691E1
1.641755133E1,-3.941154327E0,2.315459976E1,-2.707868958E-1,2.348917864E1
1.642755533E1,-4.956642609E0,2.280657349E1,6.780899048E-2,2.333908092E1
1.643756033E1,-4.409680023E0,2.075329330E1,-2.555186462E-1,2.121814673E1
1.644756433E1,-3.272943878E0,1.863923950E1,-1.208886108E0,1.896298543E1
1.645756933E1,-2.683619385E0,1.650782181E1,-1.438658295E0,1.678629594E1
1.646757333E1,-2.408341827E0,1.394455215E1,-6.074368286E-1,1.416402572E1
1.647757833E1,-2.056124268E0,1.119357285E1,5.962101746E-1,1.139645500E1
1.648758233E1,-1.722917175E0,8.569978638E0,2.297572174E0,9.038352468E0
1.649758733E1,-1.334774323E0,6.427034912E0,4.136348419E0,7.758722736E0
1.650759133E1,-8.876541138E-1,4.015399933E0,6.299500122E0,7.522969376E0
1.651759633E1,-3.761677551E-1,1.636097717E0,8.142916718E0,8.314169266E0
1.652760033E1,2.562670898E-1,-4.806504822E-1,9.223220215E0,9.239290494E0
1.653760533E1,9.056167603E-1,-1.851499786E0,8.832832031E0,9.070122098E0
1.654760933E1,1.463356934E0,-2.041754150E0,6.767427063E0,7.218603922E0
1.655761433E1,1.473984833E0,-2.317031708E0,4.778812408E0,5.511652679E0
1.656761833E1,1.307530975E0,-3.060385895E0,4.206552429E0,5.363830946E0
1.657762333E1,1.332528992E0,-3.433559875E0,3.692970428E0,5.215649290E0
1.658762733E1,1.306183777E0,-3.039279785E0,2.015558624E0,3.873733889E0
1.659763233E1,1.081501007E0,-2.346969452E0,2.121089172E-1,2.592855613E0
1.660763633E1,7.032376099E-1,-1.624571686E0,-1.439107361E0,2.281404457E0
1.661764033E1,4.010160828E-1,-8.283773804E-1,-2.595901794E0,2.754220236E0
1.662764533E1,4.248165894E-1,-4.454736328E-1,-2.557282104E0,2.630324629E0
1.663764933E1,4.459226990E-1,-4.492158508E-1,-2.064955902E0,2.159788140E0
1.664765433E1,4.442761230E-1,-5.319937134E-1,-1.732497253E0,1.865997138E0
1.665765833E1,4.667294312E-1,-5.763015747E-1,-1.472787323E0,1.648957964E0
1.666766333E1,5.098397827E-1,-6.132746887E-1,-1.225800934E0,1.462405681E0
1.667766733E1,5.047503662E-1,-6.465055847E-1,-9.479786682E-1,1.253557322E0
1.668767233E1,4.659809875E-1,-6.971003723E-1,-7.719447327E-1,1.139730617E0
