"Time (s)","Acceleration x (m/s^2)","Acceleration y (m/s^2)","Acceleration z (m/s^2)","Absolute acceleration (m/s^2)"
1.577874995E-3,-4.086502075E-1,1.734742584E0,8.151299286E0,8.343860430E0
1.158387499E-2,-5.269042969E-1,1.868713989E0,8.259973297E0,8.485097464E0
2.158887498E-2,-7.102729797E-1,1.895807648E0,8.375982056E0,8.617171795E0
3.159387497E-2,-7.685018921E-1,1.878294067E0,8.488697662E0,8.727919097E0
4.159987502E-2,-7.135661316E-1,1.967508545E0,8.511450348E0,8.764990218E0
5.160487501E-2,-6.283932495E-1,2.242486725E0,8.731792145E0,9.037024889E0
6.160987500E-2,-7.391629028E-1,2.466421051E0,9.032816162E0,9.392622766E0
7.161587500E-2,-7.595205688E-1,2.655627594E0,9.364526367E0,9.763379717E0
8.162087499E-2,-4.685256958E-1,2.980601807E0,9.128167877E0,9.613893709E0
9.162687499E-2,-4.674778748E-1,2.789299622E0,9.107959900E0,9.536962907E0
1.016318750E-1,-7.406597900E-1,2.263742523E0,9.113049316E0,9.419170610E0
1.116368750E-1,-7.017407227E-1,2.088606720E0,8.855435028E0,9.125428626E0
1.216428750E-1,-6.764433289E-1,1.943258972E0,8.621172180E0,8.863319963E0
1.316478750E-1,-8.692424011E-1,1.938768311E0,8.593030701E0,8.851812331E0
1.416528750E-1,-8.619076538E-1,2.052082672E0,8.959917755E0,9.232229107E0
1.516588750E-1,-6.095324707E-1,2.083217926E0,9.837093658E0,1.007371522E1
1.616638750E-1,-3.734733582E-1,1.849553833E0,1.069750443E1,1.086263930E1
1.716688750E-1,-3.278182983E-1,1.607656860E0,1.127425507E1,1.139301772E1
1.816748750E-1,-5.267546082E-1,1.339414673E0,1.133682495E1,1.142782140E1
1.916798750E-1,-6.487509155E-1,9.145980835E-1,1.101005447E1,1.106700804E1
2.016858750E-1,-5.803431702E-1,5.703140259E-1,1.052042267E1,1.055184104E1
2.116908750E-1,-5.105882263E-1,4.888833618E-1,9.869725800E0,9.895008572E0
2.216958750E-1,-4.863386536E-1,5.719606018E-1,9.544302521E0,9.573785815E0
2.317018750E-1,-8.801696777E-2,8.628057861E-1,9.608968048E0,9.648028180E0
2.417068750E-1,5.007087708E-1,1.146166534E0,1.002420456E1,1.010193467E1
2.517118750E-1,2.676434326E-1,1.248553619E0,1.015458344E1,1.023455343E1
2.617132917E-1,-1.748364258E-1,1.394500122E0,1.018976028E1,1.028622443E1
2.717182917E-1,-2.984793091E-1,1.338067474E0,1.019200562E1,1.028379759E1
2.817232917E-1,-3.996688843E-1,1.125060425E0,9.733059998E0,9.806016168E0
2.917292917E-1,-4.805007935E-1,1.031504974E0,9.469458160E0,9.537584672E0
3.017342917E-1,-3.885919189E-1,1.050216064E0,9.893077240E0,9.956251038E0
3.117402917E-1,-2.550695801E-1,1.129850464E0,1.025098297E1,1.031621415E1
3.217452916E-1,-1.053808594E-1,1.124012604E0,1.046743286E1,1.052813660E1
3.317502917E-1,1.121168518E-1,1.036444702E0,1.070498886E1,1.075562989E1
3.417562917E-1,2.754272461E-2,8.677455139E-1,1.096574661E1,1.100006089E1
3.517612917E-1,-9.864486694E-2,4.453239441E-1,1.124566452E1,1.125491069E1
3.617662917E-1,-5.212161255E-1,-1.784289551E-1,1.140283768E1,1.141613815E1
3.717722917E-1,-2.356549530E0,-6.179150391E-1,1.256996063E1,1.280386875E1
3.817772917E-1,-3.268153839E0,-2.838098145E-1,1.288191193E1,1.329304451E1
3.917822916E-1,-1.327888641E0,4.698728943E-1,1.058478882E1,1.067810016E1
4.017882916E-1,5.896238708E-1,1.583107910E0,8.356223145E0,8.525277251E0
4.117932917E-1,1.303339691E0,2.598596191E0,6.375841370E0,7.007335420E0
4.217982917E-1,9.987231445E-1,2.998115387E0,6.113287354E0,6.881745858E0
4.318042917E-1,2.724334717E-1,2.430196381E0,7.170987854E0,7.576486075E0
4.418092917E-1,-5.478607178E-2,1.359173584E0,8.052804108E0,8.166884862E0
4.518152917E-1,4.610412598E-2,4.454736328E-1,9.075028381E0,9.086072445E0
4.618202916E-1,2.131567383E-1,3.847000122E-1,1.033376083E1,1.034311572E1
4.718252917E-1,3.305126953E-1,6.882687378E-1,1.168485123E1,1.170976946E1
4.818312917E-1,2.001338196E-1,7.005432129E-1,1.194875244E1,1.197094396E1
4.918362917E-1,1.312770081E-1,6.551875305E-1,1.094508957E1,1.096546807E1
5.018412917E-1,7.828720093E-2,6.876699829E-1,1.018586838E1,1.020935520E1
5.118472917E-1,4.640350342E-3,7.394622803E-1,1.031579819E1,1.034226852E1
5.218522917E-1,1.796264648E-2,8.081694031E-1,1.055185730E1,1.058277624E1
5.318572916E-1,1.017883301E-2,8.816665649E-1,1.043300446E1,1.047019682E1
5.418632916E-1,-2.799179077E-2,9.192384338E-1,1.037971527E1,1.042037773E1
5.518682917E-1,4.685256958E-2,7.210505676E-1,9.802365875E0,9.828961585E0
5.618732917E-1,-2.950364685E-1,8.259823608E-1,8.735384674E0,8.779307420E0
5.718792917E-1,-5.408253479E-1,1.231040039E0,9.282946014E0,9.379820805E0
5.818842917E-1,-2.339634705E-1,1.748963013E0,8.988657990E0,9.160217409E0
5.918902917E-1,8.337661743E-2,1.937570801E0,8.919651489E0,9.128050995E0
6.018952916E-1,6.721023560E-2,1.828298035E0,9.085356903E0,9.267734404E0
6.119002916E-1,-2.083666992E-1,1.740580444E0,9.240434418E0,9.405246684E0
6.219062917E-1,-3.697311401E-1,1.673968964E0,9.322613525E0,9.478923787E0
6.319112917E-1,-2.966830444E-1,1.552421722E0,9.253307648E0,9.387317852E0
6.419162917E-1,-2.103126526E-1,1.522483978E0,9.030421143E0,9.160278101E0
6.519222917E-1,-3.697311401E-1,1.676363983E0,8.796906738E0,8.962838026E0
6.619272917E-1,-4.463717651E-1,2.070943451E0,8.165669403E0,8.436006836E0
6.719322916E-1,-3.230282593E-1,2.111359406E0,8.062533875E0,8.340661741E0
6.819382916E-1,-1.658551025E-1,1.665586395E0,8.500223694E0,8.663457093E0
6.919432917E-1,1.011895752E-1,1.626068573E0,9.144783325E0,9.288778197E0
7.019492917E-1,3.595523071E-1,1.670226746E0,9.951006775E0,1.009660691E1
7.119542917E-1,4.180805969E-1,1.717827759E0,1.060110489E1,1.074751825E1
7.219592917E-1,4.418811035E-1,1.790277100E0,1.102442459E1,1.117757973E1
7.319652917E-1,1.977388000E-1,1.659299469E0,1.103864502E1,1.116441038E1
7.419702917E-1,-7.035369873E-3,1.634301453E0,1.088656128E1,1.100855155E1
7.519752916E-1,-9.385482788E-2,1.882036285E0,1.095047836E1,1.111142861E1
7.619812916E-1,-5.665718079E-1,2.463876343E0,1.029005173E1,1.059607733E1
7.719862917E-1,-6.982978821E-1,2.812950439E0,9.717791748E0,1.014079812E1
7.819912917E-1,-4.791535950E-1,2.852318573E0,9.651479645E0,1.007553317E1
7.919972917E-1,-7.753875732E-2,2.652484131E0,1.019410126E1,1.053382100E1
8.020022917E-1,3.043171692E-1,2.300116882E0,1.061008621E1,1.086080458E1
8.120082917E-1,7.322772217E-1,1.821562042E0,1.043435165E1,1.061743908E1
8.220132916E-1,1.013392639E0,1.708397369E0,9.709708557E0,9.910803523E0
8.320182917E-1,1.133742371E0,2.046544189E0,9.665400696E0,9.944530431E0
8.420242917E-1,1.318458252E0,2.509681091E0,1.082803299E1,1.119299467E1
8.520292917E-1,1.642833710E0,2.763104095E0,1.022418869E1,1.071763412E1
8.620342917E-1,1.818119202E0,2.821333008E0,8.576864319E0,9.210216008E0
8.720402917E-1,1.292412415E0,2.988385620E0,8.828940125E0,9.410152081E0
8.820452917E-1,7.322772217E-1,3.189866638E0,9.387877808E0,9.942018348E0
8.920502916E-1,2.576142883E-1,3.293900299E0,9.889484711E0,1.042679491E1
9.020562916E-1,-6.795867920E-2,3.212469635E0,1.011611343E1,1.061415708E1
9.120612917E-1,-4.035607910E-1,2.925516357E0,1.003737717E1,1.046281261E1
9.220672917E-1,-7.186555481E-1,2.566712494E0,9.862540741E0,1.021636866E1
9.320722917E-1,-1.103355560E0,2.123933258E0,1.021475830E1,1.049141426E1
9.420772917E-1,-1.281335449E0,1.793869629E0,1.095661560E1,1.117618961E1
9.520832917E-1,-7.762857056E-1,1.578916626E0,1.055365356E1,1.069930842E1
9.620882916E-1,-1.020877075E-1,1.255289612E0,1.132604736E1,1.139585551E1
9.720932916E-1,1.871109009E-1,1.341959381E0,1.164009430E1,1.171868853E1
9.820992917E-1,-1.269360352E-1,1.151405640E0,9.460177460E0,9.530834448E0
9.921042917E-1,-5.783972168E-1,8.677455139E-1,9.456884308E0,9.514209711E0
1.002109292E0,-5.451663208E-1,9.300160217E-1,9.605225830E0,9.665531510E0
1.012115292E0,-4.641847229E-1,1.180445251E0,9.112749939E0,9.200604866E0
1.022120292E0,-5.950126648E-1,1.473535767E0,9.004824371E0,9.143971221E0
1.032126292E0,-5.004093933E-1,1.783541107E0,8.828491058E0,9.020736268E0
1.042131292E0,-2.673440552E-1,1.965861969E0,8.709787903E0,8.932888191E0
1.052136292E0,-1.206191711E0,1.823058929E0,8.585396576E0,8.859315813E0
1.062142292E0,-1.900447998E0,1.653461609E0,8.275391235E0,8.650302768E0
1.072147292E0,-2.244881744E0,1.527423706E0,8.540190582E0,8.961438077E0
1.082152292E0,-1.864223328E0,1.393003235E0,8.991053009E0,9.287347352E0
1.092158292E0,-7.988887024E-1,1.264420624E0,9.588011627E0,9.703965665E0
1.102163292E0,6.840774536E-2,1.155297546E0,1.037866745E1,1.044299431E1
1.112168292E0,5.486091614E-1,1.105900269E0,1.080932190E1,1.087958765E1
1.122174292E0,6.131250000E-1,1.074914703E0,1.099942657E1,1.106881877E1
1.132179292E0,4.355941772E-1,1.024469604E0,1.110241241E1,1.115808414E1
1.142184292E0,3.147953796E-1,9.874964905E-1,1.107846222E1,1.112684010E1
1.152190292E0,3.035687256E-1,9.331594849E-1,1.087398743E1,1.091817490E1
1.162195292E0,3.285667419E-1,8.975335693E-1,1.043884232E1,1.048250693E1
1.172201292E0,5.074447632E-1,8.753796387E-1,9.936337280E0,9.987721875E0
1.182206292E0,7.153623962E-1,8.481362915E-1,9.580826569E0,9.644859577E0
1.192211292E0,5.608836365E-1,9.446855164E-1,9.327253876E0,9.391734986E0
1.202217292E0,1.345701599E-1,1.126707001E0,9.031618652E0,9.102621231E0
1.212222292E0,-3.353027344E-1,1.337319031E0,8.894354095E0,9.000576920E0
1.222227292E0,-7.658074951E-1,1.407073975E0,8.882828064E0,9.026126118E0
1.232233292E0,-7.786807251E-1,1.471290436E0,8.900191956E0,9.054526827E0
1.242238292E0,-4.007167053E-1,1.720671844E0,9.072034607E0,9.242461652E0
1.252243292E0,-1.035845947E-1,1.988914032E0,9.273515625E0,9.484967098E0
1.262253167E0,-3.037184143E-1,2.089654541E0,9.272617493E0,9.510012415E0
1.272258167E0,-5.150788879E-1,2.113904114E0,9.191037140E0,9.445054821E0
1.282264167E0,-6.331832886E-1,2.095342712E0,9.051826630E0,9.312730399E0
1.292269167E0,-8.053253174E-1,2.031874695E0,9.034462738E0,9.295083679E0
1.302274167E0,-9.192384338E-1,1.938468933E0,9.109307098E0,9.358532840E0
1.312280167E0,-7.764353943E-1,1.497935028E0,9.270372162E0,9.422656806E0
1.322285167E0,-6.664141846E-1,1.124761047E0,9.674082642E0,9.762021831E0
1.332290167E0,-5.965095520E-1,1.711091766E0,9.386231232E0,9.559549959E0
1.342296167E0,-1.113684082E-1,1.900148621E0,9.078920288E0,9.276301057E0
1.352301167E0,-1.791773987E-1,1.690734100E0,9.437873840E0,9.589794000E0
1.362306167E0,-3.236270142E-1,1.360969849E0,9.481882324E0,9.584522199E0
1.372312167E0,-4.504133606E-1,1.158590698E0,9.449998627E0,9.531404862E0
1.382317167E0,-4.067042542E-1,1.166075134E0,9.344617767E0,9.425869763E0
1.392323167E0,-4.890330505E-1,1.178199921E0,9.360335083E0,9.446860920E0
1.402328167E0,-5.867797852E-1,1.110839996E0,9.377399597E0,9.461178532E0
1.412333167E0,-4.936734009E-1,9.394464111E-1,9.598789215E0,9.657278467E0
1.422339167E0,-3.728746033E-1,8.102650452E-1,1.013766861E1,1.017683103E1
1.432344167E0,-2.356100464E-1,8.860075378E-1,1.030906219E1,1.034974805E1
1.442349167E0,-8.232879639E-3,9.636959839E-1,1.035187317E1,1.039663676E1
1.452355167E0,7.065307617E-2,1.007554779E0,1.040231827E1,1.045123839E1
1.462360167E0,8.217910767E-2,1.168769531E0,1.024873764E1,1.031549315E1
1.472365167E0,6.870712280E-2,1.309177551E0,1.008991791E1,1.017472898E1
1.482371167E0,-3.742218018E-2,1.564396820E0,9.845775604E0,9.969354798E0
1.492376167E0,-2.013313293E-1,1.871408386E0,9.293573914E0,9.482258156E0
1.502382167E0,-4.650828552E-1,2.018851776E0,8.644373932E0,8.889165609E0
1.512387167E0,-5.528004456E-1,2.127376099E0,8.447982330E0,8.729245262E0
1.522392167E0,-7.500901794E-1,2.121388550E0,8.673712921E0,8.960815839E0
1.532398167E0,-1.156794434E0,1.987716522E0,8.885971527E0,9.178762461E0
1.542403167E0,-1.261277161E0,1.674418030E0,9.011410675E0,9.252027787E0
1.552408167E0,-9.190887451E-1,1.279988251E0,9.430838470E0,9.561579801E0
1.562414167E0,-6.494993591E-1,1.406026154E0,1.017134857E1,1.028859032E1
1.572419167E0,-8.629554749E-1,1.305734711E0,1.067026108E1,1.078443818E1
1.582424167E0,-1.088985443E0,8.307723999E-1,1.117995117E1,1.126354208E1
1.592430167E0,-6.602769470E-1,4.309538269E-1,1.157976974E1,1.160658236E1
1.602435167E0,9.056167603E-2,2.586621094E-1,1.135314102E1,1.135644833E1
1.612440167E0,4.992118835E-1,2.200424194E-1,1.087114334E1,1.088482378E1
1.622446167E0,5.228627014E-1,3.668870544E-1,1.056053925E1,1.057983840E1
1.632451167E0,4.025129700E-1,6.845265198E-1,1.043869263E1,1.046885366E1
1.642457167E0,5.313949585E-2,9.921368408E-1,1.018811371E1,1.023644568E1
1.652462167E0,-2.387535095E-1,1.217118988E0,9.689051514E0,9.768116559E0
1.662467167E0,-2.634521484E-1,1.332379303E0,9.279802551E0,9.378666058E0
1.672473167E0,-1.573228455E-1,1.301543427E0,9.020990753E0,9.115757782E0
1.682478167E0,-1.410067749E-1,1.259181519E0,9.150471497E0,9.237778392E0
1.692483167E0,-1.959425354E-1,1.301992493E0,9.322763214E0,9.415279702E0
1.702489167E0,-2.228865051E-1,1.326092377E0,9.436376953E0,9.531705482E0
1.712494167E0,-1.980381775E-1,1.204395447E0,9.755513306E0,9.831572985E0
1.722499167E0,-2.056723022E-1,1.100661163E0,1.005339386E1,1.011555654E1
1.732505167E0,-2.335144043E-1,1.103804626E0,1.019978943E1,1.026199873E1
1.742510167E0,-2.736309814E-1,1.059646454E0,1.023032593E1,1.028869735E1
1.752516167E0,-2.797682190E-1,1.061742096E0,1.006117767E1,1.012091215E1
1.762521167E0,-1.079255676E-1,1.159638519E0,9.702523499E0,9.772173334E0
1.772526167E0,1.543290710E-1,1.254092102E0,9.315877533E0,9.401177515E0
1.782532167E0,2.883004761E-1,1.265318756E0,9.046737213E0,9.139343681E0
1.792537167E0,4.776567078E-1,1.401984558E0,8.903784485E0,9.026133989E0
1.802542167E0,7.062313843E-1,1.623673553E0,8.987161102E0,9.159920483E0
1.812548167E0,1.103505249E0,1.430575104E0,9.022936707E0,9.202046282E0
1.822553167E0,1.285077667E0,1.611099701E0,8.898395691E0,9.133920994E0
1.832558167E0,6.265969849E-1,2.295027466E0,9.007518768E0,9.316392500E0
1.842564167E0,-4.775070190E-1,2.655328217E0,9.230704651E0,9.616896030E0
1.852569167E0,-1.096020813E0,2.460134125E0,9.094487915E0,9.484894937E0
1.862575167E0,-7.429051208E-1,2.147135010E0,8.942853241E0,9.226956208E0
1.872580167E0,7.095245361E-2,2.065854034E0,9.018595734E0,9.252451359E0
1.882585167E0,4.722679138E-1,1.999392242E0,9.068442078E0,9.298238975E0
1.892591167E0,3.736230469E-1,1.816023560E0,9.061257019E0,9.248995325E0
1.902596167E0,1.401086426E-1,1.723815308E0,9.037905579E0,9.201896918E0
1.912601167E0,6.885681152E-3,1.807790680E0,9.146729279E0,9.323669398E0
1.922607167E0,1.549278259E-1,1.997296600E0,9.388925629E0,9.600266705E0
1.932612167E0,8.795709229E-1,2.192490692E0,9.937085724E0,1.021402629E1
1.942617167E0,1.008602600E0,1.994901581E0,9.829160156E0,1.008014389E1
1.952623167E0,4.577481079E-1,1.823058929E0,9.316925354E0,9.504639669E0
1.962628167E0,1.775308228E-1,1.981579285E0,9.717342682E0,9.918917403E0
1.972634167E0,-8.023315430E-2,2.055675201E0,9.742939453E0,9.957766169E0
1.982639167E0,-1.457968140E-1,1.994003448E0,9.510023804E0,9.717914345E0
1.992644167E0,-2.396516418E-1,1.969604187E0,9.498946838E0,9.703956131E0
2.002650167E0,-6.463558960E-1,2.030677185E0,9.341623993E0,9.581615970E0
2.012655167E0,-9.623487854E-1,2.079924774E0,9.365424500E0,9.641751828E0
2.022660167E0,-9.487271118E-1,1.953437805E0,9.541009369E0,9.785032558E0
2.032666167E0,-5.044509888E-1,1.745520172E0,9.694739685E0,9.863533294E0
2.042671167E0,-1.389111328E-1,1.648372192E0,9.987830200E0,1.012389151E1
2.052676167E0,-3.990701294E-1,1.688189392E0,1.030621811E1,1.045118999E1
2.062682167E0,-5.830375671E-1,1.845063171E0,1.044273422E1,1.062049382E1
2.072687167E0,-3.920347595E-1,1.899250488E0,1.058598633E1,1.076215360E1
2.082693167E0,-1.432521057E-1,1.854942627E0,1.061188248E1,1.077373580E1
2.092698167E0,-7.708969116E-2,1.871408386E0,1.039228912E1,1.055972468E1
2.102703167E0,-1.023870850E-1,1.997146912E0,1.006192612E1,1.025872488E1
2.112709167E0,-3.041674805E-1,2.205663300E0,9.843230896E0,1.009191077E1
2.122714167E0,-7.804769897E-1,2.375559998E0,9.813293152E0,1.012685302E1
2.132719167E0,-1.231638794E0,2.421514435E0,1.003288651E1,1.039420405E1
2.142725167E0,-1.410217438E0,2.224823456E0,1.044947021E1,1.077636211E1
2.152730167E0,-1.401236115E0,1.779499512E0,1.095287338E1,1.118461070E1
2.162736167E0,-1.191372528E0,1.239721985E0,1.153546188E1,1.166289672E1
2.172741167E0,-7.370672607E-1,7.030879211E-1,1.189681046E1,1.194033918E1
2.182746167E0,-2.333647156E-1,2.501298523E-1,1.185025726E1,1.185519385E1
2.192752167E0,1.044827271E-1,4.969665527E-2,1.159713364E1,1.159771076E1
2.202757167E0,1.203497314E-1,1.962419128E-1,1.107906097E1,1.108145239E1
2.212762167E0,7.185058594E-3,5.325924683E-1,1.028481262E1,1.029859588E1
2.222768167E0,-1.525328064E-1,9.407936096E-1,9.516759796E0,9.564364897E0
2.232773167E0,-5.382806396E-1,1.423539734E0,8.765172729E0,8.896317463E0
2.242778167E0,-9.171427917E-1,1.782493286E0,8.252937927E0,8.492903958E0
2.252784167E0,-1.122366028E0,2.011517029E0,7.920329590E0,8.248486350E0
2.262785792E0,-1.114432526E0,2.121987305E0,7.824977875E0,8.183829710E0
2.272791792E0,-1.040186920E0,2.088756409E0,7.908354492E0,8.245420725E0
2.282796792E0,-9.665400696E-1,2.005828857E0,8.057743835E0,8.359712006E0
2.292801792E0,-8.725355530E-1,1.950444031E0,8.284522247E0,8.555633178E0
2.302807792E0,-8.008346558E-1,1.899699554E0,8.611741791E0,8.855071497E0
2.312812792E0,-7.884104919E-1,1.852098541E0,8.951834564E0,9.175358422E0
2.322817792E0,-5.905220032E-1,1.789528656E0,9.352850647E0,9.540804173E0
2.332823792E0,-3.749702454E-1,1.669627991E0,9.771829376E0,9.920529707E0
2.342828792E0,-1.420545959E-1,1.510209503E0,1.015727783E1,1.026991749E1
2.352833792E0,1.661544800E-2,1.349443817E0,1.049662216E1,1.058302185E1
2.362839792E0,1.044827271E-1,1.163081360E0,1.078162949E1,1.084468576E1
2.372844792E0,3.162922668E-1,9.723779297E-1,1.095332245E1,1.100094688E1
2.382850792E0,4.462220764E-1,8.550219727E-1,1.098775085E1,1.102999753E1
2.392855792E0,4.749623108E-1,8.574169922E-1,1.081785416E1,1.086216929E1
2.402860792E0,5.019062805E-1,9.698332214E-1,1.050126251E1,1.055788808E1
2.412866792E0,4.448748779E-1,1.135688324E0,1.009605515E1,1.016946563E1
2.422871792E0,2.945874023E-1,1.380130005E0,9.725276184E0,9.827132716E0
2.432876792E0,7.469467163E-2,1.667382660E0,9.423204346E0,9.569875881E0
2.442882792E0,3.622467041E-2,1.849104767E0,9.131610718E0,9.317017493E0
2.452887792E0,-1.541793823E-2,2.000440063E0,8.893755341E0,9.115968529E0
2.462893792E0,-2.083666992E-1,2.086211700E0,8.661737823E0,8.911868382E0
2.472898792E0,-3.629951477E-1,2.099533997E0,8.517138519E0,8.779604606E0
2.482903792E0,-3.309617615E-1,2.139949951E0,8.590186615E0,8.858906680E0
2.492909792E0,-3.842509460E-1,2.209704895E0,8.731792145E0,9.015244787E0
2.502914792E0,-4.517605591E-1,2.018402710E0,8.944649506E0,9.180674914E0
2.512919792E0,-3.299139404E-1,1.577270050E0,9.213340759E0,9.353195816E0
2.522925792E0,-7.902067566E-1,2.311193848E0,9.122330017E0,9.443672414E0
2.532930792E0,-5.415737915E-1,2.219584351E0,9.478439484E0,9.749906251E0
2.542935792E0,-4.822970581E-1,1.859732666E0,9.586215363E0,9.776847192E0
2.552941792E0,-5.011578369E-1,1.928140411E0,9.547595673E0,9.753228581E0
2.562946792E0,-4.357438660E-1,1.994153137E0,9.773625641E0,9.984501871E0
2.572951792E0,-5.671705627E-1,1.885179749E0,9.887089691E0,1.008117690E1
2.582957792E0,-7.247927856E-1,1.749112701E0,9.977052612E0,1.015511195E1
2.592962792E0,-9.560618591E-1,1.795366516E0,1.018841309E1,1.038947335E1
2.602968792E0,-1.050964508E0,1.927092590E0,1.007644592E1,1.031275786E1
2.612973792E0,-1.011147308E0,1.974094849E0,9.701775055E0,9.952080615E0
2.622978792E0,-9.500743103E-1,1.883533173E0,9.404642944E0,9.638342561E0
2.632984792E0,-6.562353516E-1,1.680555267E0,9.389075317E0,9.560839197E0
2.642989792E0,-2.797682190E-1,1.540296936E0,9.491013336E0,9.619257719E0
2.652994792E0,-2.656974792E-1,1.699715424E0,9.568103027E0,9.721533995E0
2.663000792E0,-3.728746033E-1,1.750609589E0,9.627828827E0,9.792791089E0
2.673005792E0,-2.336640930E-1,1.687291260E0,9.911638641E0,1.005694443E1
2.683011792E0,5.403762817E-2,1.457968140E0,1.018272491E1,1.028671366E1
2.693016792E0,2.180964661E-1,1.224753113E0,1.012988480E1,1.020598610E1
2.703021792E0,1.901046753E-1,1.273851013E0,9.954150238E0,1.003712823E1
2.713027792E0,1.193019104E-1,1.442699890E0,9.858199768E0,9.963920844E0
2.723032792E0,2.933898926E-2,1.615590363E0,9.734706573E0,9.867902769E0
2.733037792E0,-9.101074219E-2,1.920057220E0,9.268276520E0,9.465508562E0
2.743043792E0,-3.531156921E-1,2.221679993E0,8.769513702E0,9.053448142E0
2.753048792E0,-6.948550415E-1,2.318229218E0,8.723259888E0,9.052749489E0
2.763053792E0,-9.463320923E-1,2.280208282E0,8.871601410E0,9.208702722E0
2.773059792E0,-9.680369568E-1,2.113754425E0,9.256301422E0,9.543802666E0
2.783064792E0,-8.090675354E-1,1.714833984E0,1.007869125E1,1.025549917E1
2.793070792E0,-5.707630920E-1,1.072968750E0,1.116124008E1,1.122721304E1
2.803075792E0,-1.333726501E-1,3.932322693E-1,1.207853256E1,1.208566791E1
2.813080792E0,6.207591248E-1,-2.215393066E-1,1.257969040E1,1.259694535E1
2.823086792E0,1.427132263E0,-7.042854309E-1,1.239991425E1,1.250162381E1
2.833091792E0,1.995650024E0,-8.496331787E-1,1.166494263E1,1.186488020E1
2.843096792E0,2.104473724E0,-5.724096680E-1,1.085707260E1,1.107395539E1
2.853102792E0,1.685045929E0,6.870712280E-2,1.011940659E1,1.025897120E1
2.863107792E0,1.049018555E0,7.929011536E-1,9.420659637E0,9.511990337E0
2.873113792E0,3.611988831E-1,1.379082184E0,8.686137085E0,8.802346833E0
2.883118792E0,-2.827619934E-1,1.826202393E0,8.157586212E0,8.364280144E0
2.893123792E0,-6.120771790E-1,2.149979095E0,7.839797058E0,8.152267568E0
2.903129792E0,-5.776487732E-1,2.200274506E0,7.747738495E0,8.074796455E0
2.913134792E0,-4.508624268E-1,2.013163605E0,7.916138306E0,8.180547066E0
2.923139792E0,-3.330574036E-1,1.793270874E0,8.201894073E0,8.402250535E0
2.933145792E0,-1.103205872E-1,1.582359467E0,8.502768402E0,8.649456781E0
2.943150792E0,2.460882568E-1,1.366957397E0,9.026080170E0,9.132319267E0
2.953156792E0,5.676196289E-1,1.114282837E0,9.804910583E0,9.884335579E0
2.963161792E0,7.250921631E-1,8.894503784E-1,1.052386551E1,1.058624702E1
2.973166792E0,9.259744263E-1,7.020401001E-1,1.089045319E1,1.095227189E1
2.983172792E0,1.028810577E0,5.502557373E-1,1.101768860E1,1.107929125E1
2.993177792E0,1.044378204E0,4.197271729E-1,1.098849930E1,1.104599536E1
3.003182792E0,9.229806519E-1,4.733157349E-1,1.073612411E1,1.078611525E1
3.013188792E0,7.174580383E-1,6.587800598E-1,1.034229309E1,1.038805870E1
3.023193792E0,5.337899780E-1,8.544232178E-1,9.931996307E0,9.982961556E0
3.033199792E0,2.642005920E-1,1.059197388E0,9.479636993E0,9.542285816E0
3.043204792E0,2.844085693E-2,1.288071442E0,9.087602234E0,9.178477612E0
3.053209792E0,-1.871109009E-2,1.415306854E0,8.971892853E0,9.082857753E0
3.063215792E0,5.538482666E-3,1.475930786E0,8.920699310E0,9.041973156E0
3.073220792E0,-2.679428101E-2,1.562450867E0,8.846603394E0,8.983560666E0
3.083225792E0,-8.622070312E-2,1.605561218E0,8.868008881E0,9.012593541E0
3.093231792E0,-9.789642334E-2,1.544338531E0,8.953181763E0,9.085924768E0
3.103236792E0,2.903961182E-2,1.494192810E0,9.095086670E0,9.217052511E0
3.113241792E0,9.190887451E-2,1.525178375E0,9.231752472E0,9.357343107E0
3.123247792E0,1.269360352E-1,1.553170166E0,9.390721893E0,9.519144289E0
3.133252792E0,2.032772827E-1,1.566492462E0,9.461374969E0,9.592332177E0
3.143258792E0,2.686912537E-1,1.610201569E0,9.564959564E0,9.703267261E0
3.153263792E0,3.523672485E-1,1.647024994E0,9.668693848E0,9.814300522E0
3.163268792E0,4.038601685E-1,1.671124878E0,9.709558868E0,9.860593025E0
3.173274792E0,3.414399719E-1,1.583556976E0,9.833351440E0,9.965893563E0
3.183279792E0,3.549119568E-1,1.455423431E0,9.982441406E0,1.009422391E1
3.193285792E0,3.438349915E-1,1.372944946E0,9.927056580E0,1.002744497E1
3.203290792E0,3.150947571E-1,1.273102570E0,9.895023193E0,9.981560943E0
3.213295792E0,3.224295044E-1,1.209634552E0,9.882149963E0,9.961127669E0
3.223301792E0,2.857557678E-1,1.254092102E0,9.741741943E0,9.826288183E0
3.233306792E0,1.773811340E-1,1.354533234E0,9.691296844E0,9.787106767E0
3.243311792E0,1.184037781E-1,1.435365143E0,9.697883148E0,9.804245514E0
3.253317792E0,8.442443848E-2,1.463356934E0,9.689500580E0,9.799742981E0
3.263326417E0,5.104385376E-2,1.494342499E0,9.683213654E0,9.797973854E0
3.273331417E0,5.897735596E-2,1.465602264E0,9.728120270E0,9.838078690E0
3.283337417E0,1.055305481E-1,1.436712341E0,9.775870972E0,9.881443837E0
3.293342417E0,1.763333130E-1,1.416654053E0,9.796228638E0,9.899701898E0
3.303348417E0,2.186952209E-1,1.368753662E0,9.804012451E0,9.901513739E0
3.313353417E0,2.891986084E-1,1.361718292E0,9.873168640E0,9.970826021E0
3.323358417E0,3.439846802E-1,1.405577087E0,9.869576111E0,9.975094236E0
3.333364417E0,3.638932800E-1,1.488205261E0,9.842183075E0,9.960709859E0
3.343369417E0,3.302133179E-1,1.620829468E0,9.795031128E0,9.933718528E0
3.353374417E0,2.737806702E-1,1.841470642E0,9.590107269E0,9.769141591E0
3.363380417E0,5.837860107E-3,2.052681427E0,9.422455902E0,9.643454275E0
3.373385417E0,-2.760260010E-1,2.202370148E0,9.502539368E0,9.758323578E0
3.383391417E0,-4.165837097E-1,2.164498901E0,9.809251556E0,1.005385566E1
3.393396417E0,-5.644761658E-1,1.891616364E0,1.029648834E1,1.048401249E1
3.403401417E0,-5.803431702E-1,1.462907867E0,1.079959213E1,1.091366519E1
3.413407417E0,-3.245251465E-1,9.294172668E-1,1.113249985E1,1.117594228E1
3.423412417E0,4.625381470E-2,3.573069763E-1,1.136676270E1,1.137247123E1
3.433417417E0,4.358935547E-1,-6.795867920E-2,1.142124939E1,1.142976637E1
3.443423417E0,7.068301392E-1,-2.829116821E-1,1.134311188E1,1.136863382E1
3.453428417E0,8.402027893E-1,-2.459385681E-1,1.092458221E1,1.095960415E1
3.463434417E0,8.177494812E-1,7.185058594E-3,1.025337799E1,1.028593827E1
3.473439417E0,5.174739075E-1,4.462220764E-1,9.584119720E0,9.608446503E0
3.483444417E0,2.180964661E-1,8.586145020E-1,8.942404175E0,8.986177016E0
3.493450417E0,-2.164498901E-1,1.048719177E0,8.436755676E0,8.504440535E0
3.503455417E0,-4.611909485E-1,1.786385193E0,8.110434265E0,8.317632663E0
3.513460417E0,-7.273374939E-1,2.139051819E0,8.115823059E0,8.424437455E0
3.523466417E0,-9.568103027E-1,2.004182281E0,8.036338348E0,8.337563590E0
3.533471417E0,-8.665480042E-1,1.921853485E0,8.152197418E0,8.420377011E0
3.543477417E0,-8.175997925E-1,1.914369049E0,8.398734741E0,8.652862158E0
3.553482417E0,-7.668553162E-1,1.792372742E0,8.718619537E0,8.933923760E0
3.563487417E0,-6.020480347E-1,1.531165924E0,8.969647522E0,9.119293152E0
3.573493417E0,-3.845503235E-1,1.191522217E0,9.253756714E0,9.338073541E0
3.583498417E0,-1.951940918E-1,9.234297180E-1,9.697134705E0,9.742958722E0
3.593503417E0,-1.496887207E-4,7.432044983E-1,1.015637970E1,1.018353581E1
3.603509417E0,1.889071655E-1,5.249583435E-1,1.063268921E1,1.064731642E1
3.613514417E0,3.888912964E-1,3.049159241E-1,1.099733093E1,1.100842849E1
3.623520417E0,5.547463989E-1,1.414558411E-1,1.119057907E1,1.120521366E1
3.633525417E0,5.891748047E-1,9.864486694E-2,1.116857483E1,1.118453939E1
3.643530417E0,5.119354248E-1,2.251318359E-1,1.094703552E1,1.096131146E1
3.653536417E0,3.251239014E-1,4.311035156E-1,1.059691360E1,1.061066132E1
3.663541417E0,1.591191101E-1,7.276368713E-1,1.016985168E1,1.019709064E1
3.673546417E0,-3.742218018E-2,1.000070343E0,9.769434357E0,9.820559493E0
3.683552417E0,-2.282752991E-1,1.216071167E0,9.415121155E0,9.496075245E0
3.693557417E0,-3.324586487E-1,1.436712341E0,9.150471497E0,9.268538165E0
3.703563417E0,-4.429289246E-1,1.624272308E0,9.030421143E0,9.186019409E0
3.713568417E0,-5.081932068E-1,1.753004608E0,8.923244019E0,9.107994802E0
3.723573417E0,-5.514532471E-1,1.796713715E0,8.879385223E0,9.076109453E0
3.733579417E0,-5.975573730E-1,1.833537140E0,8.937314758E0,9.143004339E0
3.743584417E0,-5.189707947E-1,1.897603912E0,9.046587524E0,9.258022312E0
3.753590417E0,-4.225712585E-1,1.958676910E0,9.218729553E0,9.433978815E0
3.763595417E0,-3.833528137E-1,1.981429596E0,9.370064850E0,9.584943292E0
3.773600417E0,-3.558100891E-1,1.991309052E0,9.516610107E0,9.729223016E0
3.783606417E0,-3.691323853E-1,2.063159637E0,9.625433807E0,9.850982813E0
3.793611417E0,-3.547622681E-1,2.095043335E0,9.727371826E0,9.956747736E0
3.803616417E0,-3.354524231E-1,2.078278198E0,9.787097626E0,1.001094644E1
3.813622417E0,-3.550616455E-1,2.033072205E0,9.864187317E0,1.007777966E1
3.823627417E0,-4.219725037E-1,1.996248779E0,1.001567230E1,1.022138746E1
3.833633417E0,-3.344046021E-1,1.931283875E0,1.016461258E1,1.035186132E1
3.843638417E0,-2.056723022E-1,1.769320679E0,1.030292496E1,1.045576680E1
3.853643417E0,-2.180964661E-1,1.647474060E0,1.037477554E1,1.050703119E1
3.863649417E0,-2.487826538E-1,1.597328339E0,1.039692947E1,1.052185787E1
3.873654417E0,-2.862048340E-1,1.531764679E0,1.039273819E1,1.050891161E1
3.883659417E0,-2.764750671E-1,1.437909851E0,1.042566971E1,1.052799183E1
3.893665417E0,-2.616558838E-1,1.378483429E0,1.046099625E1,1.055467303E1
3.903670417E0,-2.079176331E-1,1.285227356E0,1.052790710E1,1.060810384E1
3.913676417E0,-1.435514832E-1,1.169218597E0,1.057236465E1,1.063778988E1
3.923681417E0,-1.721420288E-2,1.103505249E0,1.060843964E1,1.066569321E1
3.933686417E0,9.879455566E-2,1.056053925E0,1.066427353E1,1.071689041E1
3.943692417E0,2.154020691E-1,1.049168243E0,1.062939606E1,1.068322108E1
3.953697417E0,3.344046021E-1,1.116827545E0,1.053793625E1,1.060222762E1
3.963702417E0,3.414399719E-1,1.274449768E0,1.028541138E1,1.036969096E1
3.973708417E0,1.278341675E-1,1.516945496E0,9.886490936E0,1.000300796E1
3.983713417E0,-1.125659180E-1,1.686542816E0,9.604028320E0,9.751638720E0
3.993719417E0,-4.056564331E-2,1.721869354E0,9.640552368E0,9.793198130E0
4.003724417E0,-2.215393066E-2,1.638343048E0,9.783804474E0,9.920054875E0
4.013729417E0,-1.146615601E-1,1.619482269E0,9.859546967E0,9.992323878E0
4.023735417E0,-1.248403931E-1,1.552421722E0,1.000279907E1,1.012331900E1
4.033740417E0,-7.065307617E-2,1.315314789E0,1.018092865E1,1.026578555E1
4.043746417E0,8.322692871E-2,1.034947815E0,1.040231827E1,1.045400732E1
4.053751417E0,3.297642517E-1,8.071215820E-1,1.065154999E1,1.068717488E1
4.063756417E0,5.219645691E-1,6.015989685E-1,1.076276871E1,1.079219897E1
4.073762417E0,7.391629028E-1,4.538562012E-1,1.072938812E1,1.076439115E1
4.083767417E0,9.261241150E-1,3.635939026E-1,1.049482590E1,1.054188204E1
4.093772417E0,9.704319763E-1,4.459226990E-1,1.002794678E1,1.008465675E1
4.103778417E0,8.872050476E-1,6.906637573E-1,9.463171234E0,9.529730271E0
4.113783417E0,8.324189758E-1,9.942324829E-1,9.069489899E0,9.161717448E0
4.123789417E0,7.749385071E-1,1.256636810E0,8.792116699E0,8.915210699E0
4.133794417E0,6.791377258E-1,1.439107361E0,8.622519379E0,8.768129703E0
4.143799417E0,5.839356995E-1,1.557211761E0,8.603658600E0,8.762923637E0
4.153805417E0,5.460644531E-1,1.591640167E0,8.600664825E0,8.763728673E0
4.163810417E0,5.269042969E-1,1.529669037E0,8.613388367E0,8.764015898E0
4.173815417E0,4.884342957E-1,1.486259308E0,8.714727631E0,8.854039331E0
4.183821417E0,4.840933228E-1,1.414408722E0,8.898844757E0,9.023543450E0
4.193826417E0,5.037025452E-1,1.256786499E0,9.204808502E0,9.303855551E0
4.203832417E0,5.670208740E-1,1.006956024E0,9.582473145E0,9.651904717E0
4.213837417E0,6.469546509E-1,7.912545776E-1,9.873168640E0,9.925930340E0
4.223842417E0,7.833210754E-1,6.788383484E-1,1.013811768E1,1.019096872E1
4.233848417E0,8.936416626E-1,5.827381897E-1,1.027358597E1,1.032883090E1
4.243853417E0,9.286688232E-1,5.057981873E-1,1.023691223E1,1.029138619E1
4.253858417E0,8.192463684E-1,5.571414185E-1,1.005923172E1,1.010790354E1
4.263860917E0,6.448590088E-1,7.664062500E-1,9.812993774E0,9.863978330E0
4.273865917E0,4.255650330E-1,1.047072601E0,9.544152832E0,9.610843871E0
4.283871917E0,1.540296936E-1,1.332379303E0,9.191635895E0,9.288978963E0
4.293876917E0,-9.430389404E-2,1.498982849E0,8.904083862E0,9.029870001E0
4.303881917E0,-3.100053406E-1,1.610051880E0,8.645421753E0,8.799527695E0
4.313887917E0,-4.430786133E-1,1.711540833E0,8.521479492E0,8.702947973E0
4.323892917E0,-4.743635559E-1,1.742825775E0,8.593180389E0,8.780957332E0
4.333898917E0,-4.128414917E-1,1.732646942E0,8.710386658E0,8.890632106E0
4.343903917E0,-3.074606323E-1,1.738484802E0,8.848100281E0,9.022512955E0
4.353908917E0,-1.996847534E-1,1.712438965E0,9.011560364E0,9.174995444E0
4.363914917E0,-1.160087585E-1,1.715283051E0,9.202563171E0,9.361774559E0
4.373919917E0,-6.825805664E-2,1.745520172E0,9.353299713E0,9.515025768E0
4.383924917E0,1.601669312E-2,1.751058655E0,9.513915710E0,9.673730154E0
4.393930917E0,1.248403931E-1,1.745370483E0,9.750573578E0,9.906340815E0
4.403935917E0,1.814227295E-1,1.747017059E0,9.931696930E0,1.008581116E1
4.413941917E0,1.866618347E-1,1.727856903E0,1.003228775E1,1.018170563E1
4.423946917E0,1.462458801E-1,1.669178925E0,1.008872040E1,1.022691671E1
4.433951917E0,8.801696777E-2,1.611399078E0,1.008482849E1,1.021313466E1
4.443957917E0,-3.817062378E-2,1.590292969E0,1.000190094E1,1.012761132E1
4.453962917E0,-1.624122620E-1,1.589544525E0,9.877060547E0,1.000546624E1
4.463968917E0,-2.448907471E-1,1.597028961E0,9.787546692E0,9.920007219E0
4.473973917E0,-3.052153015E-1,1.633253632E0,9.755662994E0,9.896142393E0
4.483978917E0,-3.418890381E-1,1.676663361E0,9.698781281E0,9.848575860E0
4.493984917E0,-3.565585327E-1,1.709295502E0,9.666448517E0,9.822884099E0
4.503989917E0,-3.821553040E-1,1.777254181E0,9.650282135E0,9.820011221E0
4.513994917E0,-3.414399719E-1,1.849254456E0,9.668544159E0,9.849724334E0
4.524000917E0,-3.128494263E-1,1.933080139E0,9.720037079E0,9.915331281E0
4.534005917E0,-2.712359619E-1,1.999092865E0,9.809850311E0,1.001514375E1
4.544011917E0,-2.089654541E-1,2.028132477E0,9.872120819E0,1.008046414E1
4.554016917E0,-1.178050232E-1,2.034569092E0,9.940079498E0,1.014684827E1
4.564021917E0,-3.772155762E-2,2.040107574E0,9.926308136E0,1.013385687E1
4.574027917E0,-7.484436035E-4,2.088756409E0,9.798324280E0,1.001848604E1
4.584032917E0,-7.858657837E-2,2.249671783E0,9.515262909E0,9.777905052E0
4.594038917E0,-3.338058472E-1,2.493963776E0,9.242230682E0,9.578627754E0
4.604043917E0,-6.730004883E-1,2.714604950E0,9.170230408E0,9.587238154E0
4.614048917E0,-8.669970703E-1,2.761756897E0,9.435927887E0,9.869940231E0
4.624054917E0,-9.571096802E-1,2.559826813E0,1.008003845E1,1.044394310E1
4.634059917E0,-1.055006104E0,2.141446838E0,1.085288132E1,1.111232943E1
4.644064917E0,-8.671467590E-1,1.556762695E0,1.151570297E1,1.165276227E1
4.654070917E0,-5.242098999E-1,9.382489014E-1,1.209365112E1,1.214131395E1
4.664075917E0,-9.550140381E-2,3.282673645E-1,1.227058319E1,1.227534488E1
4.674081917E0,1.884580994E-1,-5.538482666E-2,1.187899750E1,1.188062143E1
4.684086917E0,2.077679443E-1,-1.481918335E-2,1.114776810E1,1.114971393E1
4.694091917E0,-1.362167358E-2,4.517605591E-1,1.037058426E1,1.038042827E1
4.704097917E0,-4.381388855E-1,1.193917236E0,9.592053223E0,9.675995508E0
4.714102917E0,-8.195457458E-1,1.778751068E0,8.873098297E0,9.086665174E0
4.724108917E0,-1.189875641E0,2.116748199E0,8.340805206E0,8.687085729E0
4.734113917E0,-1.489851837E0,2.392923889E0,8.050708466E0,8.529926731E0
4.744118917E0,-1.686692505E0,2.504741364E0,7.977360992E0,8.529768421E0
4.754124917E0,-1.764680328E0,2.358944550E0,8.004754028E0,8.529642613E0
4.764129917E0,-1.697470093E0,2.066303101E0,8.185877380E0,8.611596931E0
4.774134917E0,-1.593735809E0,1.741628265E0,8.470435638E0,8.793266899E0
4.784140917E0,-1.432221680E0,1.456770630E0,8.789571991E0,9.023858121E0
4.794145917E0,-1.313368835E0,1.193767548E0,9.135502625E0,9.306311131E0
4.804151917E0,-1.159788208E0,9.782157898E-1,9.514813843E0,9.635024509E0
4.814156917E0,-9.907896423E-1,8.093669128E-1,9.910441132E0,9.992676435E0
4.824161917E0,-8.419990540E-1,6.318360901E-1,1.037372772E1,1.042700370E1
4.834167917E0,-7.008425903E-1,5.204676819E-1,1.071905960E1,1.075454814E1
4.844172917E0,-5.760021973E-1,4.686753845E-1,1.089494385E1,1.092022145E1
4.854178917E0,-5.101391602E-1,4.610412598E-1,1.087698120E1,1.089869355E1
4.864183917E0,-4.577481079E-1,5.236111450E-1,1.073941727E1,1.076191364E1
4.874188917E0,-4.647834778E-1,6.301895142E-1,1.052925430E1,1.055833125E1
4.884194917E0,-6.002517700E-1,8.466394043E-1,1.017718643E1,1.022996697E1
4.894199917E0,-7.312294006E-1,1.093625793E0,9.740245056E0,9.828686971E0
4.904205917E0,-8.168513489E-1,1.287472687E0,9.353898468E0,9.477354515E0
4.914210917E0,-8.900491333E-1,1.459315338E0,9.007069702E0,9.167829260E0
4.924215917E0,-9.469308472E-1,1.615440674E0,8.738528137E0,8.936901063E0
4.934221917E0,-9.464817810E-1,1.717229004E0,8.576265564E0,8.797558425E0
4.944226917E0,-9.131011963E-1,1.818717957E0,8.573870544E0,8.812079489E0
4.954232917E0,-7.812254333E-1,1.896705780E0,8.711135101E0,8.949395552E0
4.964237917E0,-6.905140686E-1,1.933229828E0,8.774004364E0,9.010956654E0
4.974242917E0,-6.276448059E-1,1.951342163E0,8.904682617E0,9.137562408E0
4.984248917E0,-6.039939880E-1,1.996548157E0,9.002728729E0,9.241219500E0
4.994253917E0,-6.821315002E-1,2.023641815E0,9.091045074E0,9.338497209E0
5.004259917E0,-6.979985046E-1,2.025288391E0,9.280251617E0,9.524288166E0
5.014264917E0,-6.530918884E-1,1.992356873E0,9.537716217E0,9.765451631E0
5.024269917E0,-6.523434448E-1,1.948797455E0,9.702822876E0,9.918071146E0
5.034275917E0,-6.349795532E-1,1.855391693E0,9.856104126E0,1.004930176E1
5.044280917E0,-6.231541443E-1,1.797761536E0,9.963131561E0,1.014318777E1
5.054285917E0,-6.198609924E-1,1.744472351E0,1.003453308E1,1.020388483E1
5.064291917E0,-6.306385803E-1,1.711540833E0,1.004815475E1,1.021236951E1
5.074296917E0,-6.643185425E-1,1.689386902E0,1.008348129E1,1.024558159E1
5.084302917E0,-7.635621643E-1,1.685944061E0,1.013557297E1,1.030316815E1
5.094307917E0,-8.735833740E-1,1.701960754E0,1.008931915E1,1.026908853E1
5.104312917E0,-9.607022095E-1,1.670226746E0,1.009171417E1,1.027401095E1
5.114318917E0,-9.846524048E-1,1.647174683E0,1.014814682E1,1.032800119E1
5.124323917E0,-8.925938416E-1,1.586550751E0,1.033855087E1,1.049759502E1
5.134329917E0,-7.490423584E-1,1.512903900E0,1.050590286E1,1.064067374E1
5.144334917E0,-6.276448059E-1,1.444196777E0,1.065589096E1,1.077161337E1
5.154339917E0,-4.954696655E-1,1.432521057E0,1.075333832E1,1.085964510E1
5.164345917E0,-3.694317627E-1,1.472338257E0,1.073821976E1,1.084498148E1
5.174350917E0,-2.809657288E-1,1.563348999E0,1.061158310E1,1.072980418E1
5.184356917E0,-1.713935852E-1,1.721569977E0,1.041204803E1,1.055480569E1
5.194361917E0,-2.338137817E-1,1.955832825E0,9.979597321E0,1.017213417E1
5.204366917E0,-4.493655396E-1,2.242486725E0,9.454040222E0,9.726744194E0
5.214372917E0,-6.343807983E-1,2.447560272E0,9.131011963E0,9.474617129E0
5.224377917E0,-7.057823181E-1,2.572999420E0,9.001381531E0,9.388467615E0
5.234382917E0,-7.005432129E-1,2.591710510E0,9.102720795E0,9.490376706E0
5.244388917E0,-6.375242615E-1,2.438129883E0,9.573342133E0,9.899484537E0
5.254393917E0,-4.990621948E-1,2.058369598E0,1.027283752E1,1.048890553E1
5.264400167E0,-1.841171265E-1,1.379381561E0,1.098475708E1,1.107255529E1
5.274405167E0,2.974314880E-1,5.472619629E-1,1.162871796E1,1.164538718E1
5.284411167E0,7.343728638E-1,-4.610412598E-2,1.192016190E1,1.194285095E1
5.294416167E0,1.137334900E0,-4.843927002E-1,1.173020691E1,1.179516516E1
5.304421167E0,1.248703308E0,-6.104306030E-1,1.116483261E1,1.125101652E1
5.314427167E0,1.130299530E0,-3.019221497E-1,1.040127045E1,1.046686013E1
5.324432167E0,7.674540710E-1,3.694317627E-1,9.625284119E0,9.662896043E0
5.334437167E0,4.643344116E-1,9.873468018E-1,8.803193665E0,8.870551214E0
5.344443167E0,3.372486877E-1,1.329385529E0,8.228388977E0,8.341905521E0
5.354448167E0,3.185375977E-1,1.556014252E0,7.910001068E0,8.067884695E0
5.364454167E0,2.972817993E-1,1.726060638E0,7.765850830E0,7.960910809E0
5.374459167E0,3.378474426E-1,1.779499512E0,7.815547485E0,8.022689194E0
5.384464167E0,4.638853455E-1,1.688339081E0,8.051307220E0,8.239491879E0
5.394470167E0,5.592370605E-1,1.516047363E0,8.343499603E0,8.498537011E0
5.404475167E0,6.343807983E-1,1.334774323E0,8.673413544E0,8.798418266E0
5.414481167E0,6.527925110E-1,1.207987976E0,9.021439819E0,9.125335579E0
5.424486167E0,5.942642212E-1,1.111438751E0,9.386081543E0,9.470320628E0
5.434491167E0,5.885760498E-1,1.010698242E0,9.790241089E0,9.859855642E0
5.444497167E0,5.783972168E-1,9.413923645E-1,1.010638367E1,1.016659991E1
5.454502167E0,5.306465149E-1,8.825646973E-1,1.028406418E1,1.033549622E1
5.464508167E0,5.117857361E-1,8.536747742E-1,1.032702484E1,1.037487963E1
5.474513167E0,4.002676392E-1,8.955876160E-1,1.025188110E1,1.029870659E1
5.484518167E0,2.157014465E-1,1.021475830E0,1.003438339E1,1.008854747E1
5.494524167E0,-1.422042847E-2,1.166673889E0,9.788594513E0,9.857885814E0
5.504529167E0,-2.633024597E-1,1.303339691E0,9.534722443E0,9.626990942E0
5.514535167E0,-4.411326599E-1,1.429078217E0,9.292975159E0,9.412558094E0
5.524540167E0,-5.165757751E-1,1.516047363E0,9.123228149E0,9.262750240E0
5.534545167E0,-5.709127808E-1,1.597478027E0,8.982371063E0,9.141163349E0
5.544551167E0,-6.036946106E-1,1.673669586E0,8.920399933E0,9.096106421E0
5.554556167E0,-5.863307190E-1,1.736838226E0,8.880732422E0,9.067954515E0
5.564562167E0,-5.423222351E-1,1.771116943E0,8.939410400E0,9.129294986E0
5.574567167E0,-5.057981873E-1,1.828597412E0,9.090895386E0,9.286763657E0
5.584572167E0,-4.390370178E-1,1.835034027E0,9.213939514E0,9.405146716E0
5.594578167E0,-3.600013733E-1,1.800306244E0,9.382638702E0,9.560575954E0
5.604583167E0,-2.743794250E-1,1.788031769E0,9.510173492E0,9.680689104E0
5.614589167E0,-2.311193848E-1,1.777254181E0,9.643396454E0,9.808524036E0
5.624594167E0,-2.383044434E-1,1.748963013E0,9.706565094E0,9.865752204E0
5.634599167E0,-2.658471680E-1,1.728455658E0,9.714049530E0,9.870207290E0
5.644605167E0,-3.062631226E-1,1.702409821E0,9.754764862E0,9.906938670E0
5.654610167E0,-3.095562744E-1,1.695973206E0,9.828112335E0,9.978173293E0
5.664616167E0,-2.812651062E-1,1.663790131E0,9.884844360E0,1.002783405E1
5.674621167E0,-3.132984924E-1,1.648671570E0,9.832004242E0,9.974195772E0
5.684626167E0,-3.409909058E-1,1.710942078E0,9.790989532E0,9.945203548E0
5.694632167E0,-4.032614136E-1,1.816322937E0,9.748028870E0,9.923996958E0
5.704637167E0,-4.535568237E-1,1.865720215E0,9.761351166E0,9.948396971E0
5.714643167E0,-4.414320374E-1,1.891466675E0,9.816885681E0,1.000718506E1
5.724648167E0,-4.574487305E-1,1.900747375E0,9.857750702E0,1.004974372E1
5.734653167E0,-4.402345276E-1,1.878743134E0,9.887089691E0,1.007363017E1
5.744659167E0,-3.661386108E-1,1.841620331E0,9.942773895E0,1.011851648E1
5.754664167E0,-3.308120728E-1,1.819915466E0,9.964628448E0,1.013485812E1
5.764670167E0,-2.853067017E-1,1.789528656E0,9.977202301E0,1.014043285E1
5.774675167E0,-2.329156494E-1,1.762584686E0,1.000848724E1,1.016517444E1
5.784680167E0,-1.573228455E-1,1.721120911E0,1.002854553E1,1.017638114E1
5.794686167E0,-1.032852173E-1,1.675465851E0,1.004276596E1,1.018209221E1
5.804691167E0,-9.909393311E-2,1.718127136E0,9.887239380E0,1.003589971E1
5.814697167E0,-2.218386841E-1,1.839674377E0,9.653724976E0,9.829955245E0
5.824702167E0,-5.005590820E-1,2.052831116E0,9.363328857E0,9.598781291E0
5.834707167E0,-8.282276917E-1,2.332299957E0,9.179361420E0,9.507168888E0
5.844713167E0,-1.027912445E0,2.408790894E0,9.297914886E0,9.659715255E0
5.854718167E0,-1.125958557E0,2.258802795E0,9.754166107E0,1.007540218E1
5.864724167E0,-1.147962799E0,1.969604187E0,1.053209839E1,1.077600370E1
5.874729167E0,-8.693920898E-1,1.363364868E0,1.138637192E1,1.150061180E1
5.884734167E0,-4.421804810E-1,6.882687378E-1,1.211760132E1,1.214518420E1
5.894740167E0,-7.454498291E-2,1.685494995E-1,1.245350281E1,1.245486644E1
5.904745167E0,2.263293457E-1,-2.276765442E-1,1.224438766E1,1.224859547E1
5.914751167E0,4.288581848E-1,-4.311035156E-1,1.176972473E1,1.178542277E1
5.924756167E0,4.213737488E-1,-1.948947144E-1,1.104508163E1,1.105483460E1
5.934761167E0,4.281097412E-2,4.302053833E-1,1.014560211E1,1.015480929E1
5.944767167E0,-3.903881836E-1,1.056802368E0,9.164093170E0,9.233083873E0
5.954772167E0,-7.045848083E-1,1.406475220E0,8.375233612E0,8.521687060E0
5.964778167E0,-1.000220032E0,1.708097992E0,7.911947021E0,8.155792085E0
5.974783167E0,-1.287472687E0,2.015259247E0,7.614216156E0,7.980923720E0
5.984788167E0,-1.390009460E0,2.079924774E0,7.524851990E0,7.929792610E0
5.994794167E0,-1.303040314E0,1.966460724E0,7.646399231E0,8.002018685E0
6.004799167E0,-1.182391205E0,1.845212860E0,7.865244141E0,8.164859145E0
6.014805167E0,-9.993218994E-1,1.713636475E0,8.282576294E0,8.516822429E0
6.024810167E0,-8.222401428E-1,1.597777405E0,8.672814789E0,8.857013484E0
6.034815167E0,-6.691085815E-1,1.421743469E0,9.154962158E0,9.288831622E0
6.044821167E0,-5.632786560E-1,1.227597198E0,9.785451050E0,9.878225042E0
6.054826167E0,-5.288502502E-1,1.068478088E0,1.037761963E1,1.044587561E1
6.064832167E0,-4.445755005E-1,8.509803772E-1,1.092278595E1,1.096490164E1
6.074837167E0,-2.856060791E-1,6.445596313E-1,1.135957764E1,1.138143365E1
6.084842167E0,-1.333726501E-1,4.522096252E-1,1.156614807E1,1.157575324E1
6.094848167E0,-1.496887207E-2,3.089575195E-1,1.153606064E1,1.154020684E1
6.104853167E0,5.014572144E-2,3.501219177E-1,1.133008896E1,1.133560831E1
6.114859167E0,-7.334747314E-3,4.697232056E-1,1.101933517E1,1.102934456E1
6.124864167E0,-1.978884888E-1,7.505392456E-1,1.059691360E1,1.062530221E1
6.134869167E0,-3.818559265E-1,1.079555054E0,1.007764343E1,1.014249231E1
6.144875167E0,-5.185217285E-1,1.322499847E0,9.557774506E0,9.662759654E0
6.154880167E0,-5.996530151E-1,1.501826935E0,9.203910370E0,9.344893471E0
6.164886167E0,-6.075865173E-1,1.677262115E0,8.924142151E0,9.100696825E0
6.174891167E0,-5.951623535E-1,1.828148346E0,8.698561249E0,8.908496641E0
6.184897167E0,-5.532495117E-1,1.920057220E0,8.596623230E0,8.825793772E0
6.194902167E0,-5.161267090E-1,1.982776794E0,8.617130585E0,8.857354577E0
6.204907167E0,-4.999603271E-1,2.054926758E0,8.694220276E0,8.947745555E0
6.214913167E0,-4.586462402E-1,2.055675201E0,8.981772308E0,9.225420896E0
6.224918167E0,-4.215234375E-1,1.990410919E0,9.235195312E0,9.456651104E0
6.234924167E0,-4.366419983E-1,1.895208893E0,9.447753296E0,9.645854826E0
6.244929167E0,-4.363426208E-1,1.749711456E0,9.707612915E0,9.873683891E0
6.254934167E0,-4.158352661E-1,1.612446899E0,9.920320587E0,1.005910854E1
6.264940167E0,-3.986210632E-1,1.525178375E0,1.009111542E1,1.021350470E1
6.274945125E0,-3.962260437E-1,1.453178101E0,1.018811371E1,1.029885346E1
6.284951125E0,-4.284091187E-1,1.415007477E0,1.022778122E1,1.033408386E1
6.294956125E0,-5.069956970E-1,1.408121796E0,1.023047562E1,1.033936569E1
6.304961125E0,-5.605842590E-1,1.411714325E0,1.020158569E1,1.031404589E1
6.314967125E0,-5.780978394E-1,1.389410706E0,1.015368530E1,1.026459860E1
6.324972125E0,-5.792953491E-1,1.348395996E0,1.014829651E1,1.025386156E1
6.334978125E0,-5.902226257E-1,1.346749420E0,1.011162277E1,1.021797494E1
6.344983125E0,-6.189628601E-1,1.344953156E0,1.012374756E1,1.023143581E1
6.354988125E0,-6.271957397E-1,1.284179535E0,1.005608826E1,1.015713555E1
6.364994125E0,-6.758445740E-1,1.200802917E0,1.000579285E1,1.010022693E1
6.374999125E0,-6.887178040E-1,1.167272644E0,1.002285736E1,1.011407570E1
6.385005125E0,-6.230044556E-1,1.129700775E0,1.001657043E1,1.009930897E1
6.395010125E0,-4.992118835E-1,1.077609100E0,1.003303619E1,1.010308216E1
6.405015125E0,-3.918850708E-1,1.077309723E0,1.001567230E1,1.008106452E1
6.415021125E0,-3.227288818E-1,1.171613617E0,9.898466034E0,9.972786081E0
6.425026125E0,-3.037184143E-1,1.310225372E0,9.663005676E0,9.756157753E0
6.435032125E0,-4.430786133E-1,1.562899933E0,9.307944031E0,9.448639952E0
6.445037125E0,-6.753955078E-1,1.801803131E0,9.035510559E0,9.238133181E0
6.455042125E0,-8.806187439E-1,1.987716522E0,8.931327209E0,9.192122283E0
6.465048125E0,-1.063238983E0,2.118095398E0,9.015302582E0,9.321613910E0
6.475053125E0,-1.141526184E0,2.042801971E0,9.349108429E0,9.637528228E0
6.485059125E0,-1.188229065E0,1.702409821E0,1.004605911E1,1.025833277E1
6.495064125E0,-1.002465363E0,1.131347351E0,1.088745941E1,1.099189047E1
6.505070125E0,-5.674699402E-1,4.237687683E-1,1.156584869E1,1.158751303E1
6.515075125E0,-8.711883545E-2,-2.574645996E-1,1.202674026E1,1.202981127E1
6.525080125E0,3.496728516E-1,-7.417076111E-1,1.216220856E1,1.218982027E1
6.535086125E0,6.268963623E-1,-9.818083191E-1,1.183843185E1,1.189560488E1
6.545091125E0,6.749464417E-1,-9.220825195E-1,1.130030090E1,1.135793068E1
6.555097125E0,5.550457764E-1,-4.287084961E-1,1.065559158E1,1.067864686E1
6.565102125E0,3.986210632E-1,2.474354553E-1,9.724827118E0,9.736138122E0
6.575107125E0,2.561174011E-1,7.259902954E-1,8.886420593E0,8.919704535E0
6.585113125E0,9.550140381E-2,1.156345367E0,8.255482635E0,8.336620938E0
6.595118125E0,-2.125579834E-2,1.594783630E0,7.841743011E0,8.002294677E0
6.605124125E0,-3.592529297E-2,1.830842743E0,7.741301880E0,7.954937496E0
6.615129125E0,-8.681945801E-3,1.879940643E0,7.817044373E0,8.039927545E0
6.625134125E0,3.442840576E-2,1.837878113E0,8.052953796E0,8.260087537E0
6.635140125E0,9.160949707E-2,1.700912933E0,8.393046570E0,8.564153655E0
6.645145125E0,1.776805115E-1,1.465153198E0,8.758137360E0,8.881622277E0
6.655151125E0,2.917433167E-1,1.241368561E0,9.155261536E0,9.243642348E0
6.665156125E0,3.225791931E-1,1.129401398E0,9.489516449E0,9.561931148E0
6.675162125E0,3.570075989E-1,1.033301239E0,9.801617432E0,9.862396775E0
6.685167125E0,4.209246826E-1,9.160949707E-1,1.009575577E1,1.014596925E1
6.695172125E0,4.439767456E-1,8.249345398E-1,1.026400589E1,1.030667013E1
6.705178125E0,4.390370178E-1,7.794291687E-1,1.036145325E1,1.039999888E1
6.715183125E0,4.129911804E-1,7.620652771E-1,1.033959869E1,1.037586653E1
6.725189125E0,3.538641357E-1,7.656578064E-1,1.021161484E1,1.024639104E1
6.735194125E0,2.552192688E-1,8.128097534E-1,1.000609222E1,1.004229447E1
6.745199125E0,9.999206543E-2,9.238787842E-1,9.731563110E0,9.775830962E0
6.755205125E0,-7.364685059E-2,1.058299255E0,9.421707458E0,9.481244254E0
6.765210125E0,-2.276765442E-1,1.192570038E0,9.174421692E0,9.254408316E0
6.775216125E0,-3.022215271E-1,1.288520508E0,8.995693359E0,9.092531109E0
6.785221125E0,-3.855981445E-1,1.388662262E0,8.853938141E0,8.970467625E0
6.795226125E0,-3.706292725E-1,1.488804016E0,8.805139618E0,8.937806618E0
6.805232125E0,-3.121009827E-1,1.541943512E0,8.849447479E0,8.988198791E0
6.815237125E0,-2.460882568E-1,1.585053864E0,8.905580750E0,9.048885217E0
6.825243125E0,-1.763333130E-1,1.633253632E0,8.993597717E0,9.142396336E0
6.835248125E0,-1.154100037E-1,1.700763245E0,9.052425385E0,9.211531926E0
6.845254125E0,-5.792953491E-2,1.733545074E0,9.159452820E0,9.322237409E0
6.855259125E0,-4.625381470E-2,1.731299744E0,9.248367920E0,9.409136379E0
6.865264125E0,-4.116439819E-2,1.705852661E0,9.314380646E0,9.469388292E0
6.875270125E0,-5.328918457E-2,1.677860870E0,9.379794617E0,9.528830143E0
6.885275125E0,-4.565505981E-2,1.691781921E0,9.450896759E0,9.601232213E0
6.895281125E0,-9.520202637E-2,1.708247681E0,9.491761780E0,9.644724737E0
6.905286125E0,-1.694476318E-1,1.708397369E0,9.466913452E0,9.621319264E0
6.915291125E0,-2.182461548E-1,1.729054413E0,9.487121429E0,9.645866139E0
6.925297125E0,-2.709365845E-1,1.754052429E0,9.499395905E0,9.663779235E0
6.935302125E0,-3.391946411E-1,1.788780212E0,9.480684814E0,9.653920043E0
6.945308125E0,-4.162843323E-1,1.811233521E0,9.475595398E0,9.656125913E0
6.955313125E0,-4.839436340E-1,1.876348114E0,9.469757538E0,9.665981146E0
6.965318125E0,-5.490582275E-1,1.956281891E0,9.464069366E0,9.679726894E0
6.975324125E0,-6.134243774E-1,2.001038818E0,9.499695282E0,9.727520561E0
6.985329125E0,-6.523434448E-1,2.029180298E0,9.515113220E0,9.750923251E0
6.995335125E0,-6.526428223E-1,2.037862244E0,9.579329681E0,9.815415545E0
7.005340125E0,-6.191125488E-1,2.026785278E0,9.724378052E0,9.952622137E0
7.015346125E0,-5.712121582E-1,2.042652283E0,9.812844086E0,1.003945321E1
7.025351125E0,-5.141807556E-1,2.050735474E0,9.933193817E0,1.015569974E1
7.035356125E0,-4.662803650E-1,2.038610687E0,1.005683670E1,1.027196745E1
7.045362125E0,-3.993695068E-1,2.016905823E0,1.015847534E1,1.036445977E1
7.055367125E0,-2.809657288E-1,1.978884888E0,1.028840515E1,1.048075416E1
7.065373125E0,-1.842668152E-1,1.926044769E0,1.034528687E1,1.052466451E1
7.075378125E0,-1.303788757E-1,1.877545624E0,1.032822235E1,1.049830239E1
7.085383125E0,-1.604663086E-1,1.900298309E0,1.018332367E1,1.036035540E1
7.095389125E0,-3.370989990E-1,2.027982788E0,9.956844635E0,1.016686309E1
7.105394125E0,-6.417155457E-1,2.192041626E0,9.821076965E0,1.008317401E1
7.115400125E0,-9.315129089E-1,2.248174896E0,9.883796539E0,1.017897051E1
7.125405125E0,-1.112187195E0,2.138602753E0,1.016566040E1,1.044754677E1
7.135411125E0,-1.117126923E0,1.810335388E0,1.071965836E1,1.092869443E1
7.145416125E0,-8.662486267E-1,1.325044556E0,1.139355698E1,1.150301136E1
7.155421125E0,-5.959107971E-1,8.300239563E-1,1.192974197E1,1.197342027E1
7.165427125E0,-2.773731995E-1,3.632945251E-1,1.221609650E1,1.222464447E1
7.175432125E0,5.433700562E-2,-1.197509766E-3,1.212867828E1,1.212880006E1
7.185438125E0,2.327659607E-1,-6.077362061E-2,1.162228134E1,1.162477084E1
7.195443125E0,1.866618347E-1,1.556762695E-1,1.088820786E1,1.089092044E1
7.205448125E0,-6.885681152E-3,6.415658569E-1,1.013227982E1,1.015257349E1
7.215454125E0,-3.128494263E-1,1.219963074E0,9.252708893E0,9.338030120E0
7.225459125E0,-5.637277222E-1,1.581461334E0,8.494685211E0,8.659011822E0
7.235465125E0,-8.994795227E-1,1.864522705E0,7.963589630E0,8.228260334E0
7.245470125E0,-1.164727936E0,2.038760376E0,7.717651062E0,8.066924628E0
7.255476125E0,-1.300944672E0,1.989063721E0,7.730075226E0,8.087205606E0
7.265484250E0,-1.400337982E0,1.907633057E0,7.751181335E0,8.104370576E0
7.275489250E0,-1.406175842E0,1.818717957E0,8.007897491E0,8.331355696E0
7.285495250E0,-1.361269226E0,1.705104218E0,8.343349915E0,8.623915705E0
7.295500250E0,-1.285676422E0,1.591939545E0,8.671168213E0,8.909343048E0
7.305506250E0,-1.202898560E0,1.523232422E0,9.009315033E0,9.216016456E0
7.315511250E0,-1.117725677E0,1.429527283E0,9.312883759E0,9.488027342E0
7.325516250E0,-1.020278320E0,1.273851013E0,9.664801941E0,9.801635619E0
7.335522250E0,-9.101074219E-1,1.096020813E0,1.005863297E1,1.015901837E1
7.345527250E0,-7.881111145E-1,9.135502625E-1,1.047985703E1,1.054908036E1
7.355533250E0,-6.887178040E-1,7.421566772E-1,1.081665665E1,1.086393988E1
7.365538250E0,-5.894741821E-1,5.780978394E-1,1.098894836E1,1.101992119E1
7.375544250E0,-5.492079163E-1,4.650828552E-1,1.099418747E1,1.101771707E1
7.385549250E0,-5.560935974E-1,4.631369019E-1,1.080348404E1,1.082769612E1
7.395554250E0,-6.406677246E-1,5.635780334E-1,1.053808594E1,1.057257445E1
7.405560250E0,-7.991880798E-1,7.900570679E-1,1.014260834E1,1.020467519E1
7.415565250E0,-9.428892517E-1,1.078058167E0,9.733658752E0,9.838463410E0
7.425571250E0,-9.862989807E-1,1.331331482E0,9.373507690E0,9.518816923E0
7.435576250E0,-9.598040771E-1,1.521585846E0,9.073381805E0,9.250011067E0
7.445582250E0,-9.029223633E-1,1.708846436E0,8.892258453E0,9.099872820E0
7.455587250E0,-8.517288208E-1,1.840572510E0,8.769962769E0,9.001410784E0
7.465592250E0,-8.214916992E-1,1.922901306E0,8.725654907E0,8.972705924E0
7.475598250E0,-7.860154724E-1,1.948198700E0,8.790769501E0,9.038303320E0
7.485603250E0,-7.342231750E-1,1.930834808E0,8.916208649E0,9.152375833E0
7.495609250E0,-6.923103333E-1,1.857337646E0,9.111851807E0,9.324957913E0
7.505614250E0,-6.544390869E-1,1.750609589E0,9.333091736E0,9.518378318E0
7.515619250E0,-5.986051941E-1,1.645677795E0,9.529932404E0,9.689488903E0
7.525625250E0,-5.566923523E-1,1.544039154E0,9.732910309E0,9.870334663E0
7.535630250E0,-5.328918457E-1,1.454225922E0,9.875863037E0,9.996570286E0
7.545636250E0,-5.186714172E-1,1.380878448E0,1.000294876E1,1.011112403E1
7.555641250E0,-5.099894714E-1,1.313368835E0,1.009186386E1,1.018973715E1
7.565647250E0,-5.287005615E-1,1.254690857E0,1.018032990E1,1.027097319E1
7.575652250E0,-5.417234802E-1,1.199904785E0,1.027628036E1,1.036026901E1
7.585657250E0,-5.727090454E-1,1.128054199E0,1.037133270E1,1.044820769E1
7.595663250E0,-5.876779175E-1,1.022074585E0,1.050231033E1,1.056827915E1
7.605668250E0,-5.941145325E-1,9.364526367E-1,1.059227325E1,1.065017222E1
7.615674250E0,-6.321354675E-1,8.485853577E-1,1.069495972E1,1.074717896E1
7.625679250E0,-6.590794373E-1,8.370593262E-1,1.073417816E1,1.078691962E1
7.635684250E0,-6.149212646E-1,9.027726746E-1,1.068178711E1,1.073749051E1
7.645690250E0,-5.020559692E-1,9.575587463E-1,1.064571213E1,1.070047502E1
7.655695250E0,-4.114942932E-1,1.078207855E0,1.053748718E1,1.060049508E1
7.665701250E0,-3.748205566E-1,1.280736694E0,1.029529083E1,1.038141562E1
7.675706250E0,-3.703298950E-1,1.546434174E0,9.891730042E0,1.001872877E1
7.685712250E0,-5.111869812E-1,1.772164764E0,9.570797424E0,9.746899169E0
7.695717250E0,-7.436535645E-1,1.912572784E0,9.437724152E0,9.658239614E0
7.705722250E0,-9.273216248E-1,1.979783020E0,9.422006836E0,9.672315081E0
7.715728250E0,-1.044527893E0,1.872755585E0,9.570947113E0,9.808225152E0
7.725733250E0,-1.126108246E0,1.642234955E0,9.786049805E0,9.986582309E0
7.735739250E0,-1.056952057E0,1.308728485E0,1.010773087E1,1.024676247E1
7.745744250E0,-1.009800110E0,8.954379272E-1,1.049752029E1,1.058392355E1
7.755750250E0,-9.190887451E-1,5.427713013E-1,1.087668182E1,1.092893098E1
7.765755250E0,-7.622149658E-1,3.454815674E-1,1.126707001E1,1.129810585E1
7.775760250E0,-3.888912964E-1,9.684860229E-2,1.169562881E1,1.170249330E1
7.785766250E0,1.092727661E-2,-3.293151855E-2,1.169772446E1,1.169777591E1
7.795771250E0,3.640429688E-1,-8.681945801E-3,1.130748596E1,1.131334793E1
7.805777250E0,6.813830566E-1,2.014810181E-1,1.063448547E1,1.065819679E1
7.815782250E0,6.478527832E-1,6.703060913E-1,9.833501129E0,9.877589177E0
7.825788250E0,4.427792358E-1,1.231189728E0,9.025930481E0,9.120268781E0
7.835793250E0,3.126997375E-1,1.657952271E0,8.493787079E0,8.659734742E0
7.845798250E0,2.103126526E-1,1.950294342E0,8.267757111E0,8.497275273E0
7.855804250E0,1.398092651E-1,2.113455048E0,8.269553375E0,8.536495293E0
7.865809250E0,1.731898499E-1,2.117346954E0,8.440497894E0,8.703743881E0
7.875815250E0,2.784210205E-1,1.993853760E0,8.644822998E0,8.876144194E0
7.885820250E0,3.824546814E-1,1.761387177E0,8.871302032E0,9.052555226E0
7.895826250E0,4.628375244E-1,1.505120087E0,9.108858032E0,9.243965583E0
7.905831250E0,5.051994324E-1,1.317410431E0,9.356892242E0,9.462675581E0
7.915836250E0,4.644841003E-1,1.226399689E0,9.578132172E0,9.667492828E0
7.925842250E0,4.171824646E-1,1.135538635E0,9.753267975E0,9.828007193E0
7.935847250E0,4.064048767E-1,1.056053925E0,9.952054596E0,1.001617719E1
7.945853250E0,3.855981445E-1,9.650431824E-1,1.007929001E1,1.013272329E1
7.955858250E0,3.680845642E-1,8.538244629E-1,1.010922775E1,1.015189579E1
7.965863250E0,3.423381042E-1,7.978408813E-1,1.008437943E1,1.012168236E1
7.975869250E0,2.393522644E-1,8.207432556E-1,9.962981873E0,9.999595831E0
7.985874250E0,1.086740112E-1,8.660989380E-1,9.738299103E0,9.777341501E0
7.995880250E0,-3.861968994E-2,9.523196411E-1,9.454638977E0,9.502557675E0
8.005885250E0,-2.151026917E-1,1.154549103E0,9.164093170E0,9.239039800E0
8.015891250E0,-4.263134766E-1,1.366508331E0,8.916957092E0,9.031124625E0
8.025896250E0,-5.548960876E-1,1.576371918E0,8.713380432E0,8.872195706E0
8.035901250E0,-6.153703308E-1,1.772613831E0,8.620274048E0,8.822129284E0
8.045907250E0,-6.426136780E-1,1.905088348E0,8.602012024E0,8.833851075E0
8.055912250E0,-5.789959717E-1,1.973496094E0,8.664132843E0,8.904893098E0
8.065918250E0,-4.911286926E-1,2.021396484E0,8.847501526E0,9.088758683E0
8.075923250E0,-3.644920349E-1,2.035317535E0,9.062454529E0,9.295345825E0
8.085929250E0,-2.427951050E-1,2.038011932E0,9.242679749E0,9.467817649E0
8.095934250E0,-1.992356873E-1,2.057770844E0,9.417067108E0,9.641331268E0
8.105939250E0,-1.724414062E-1,2.059866486E0,9.502239990E0,9.724471750E0
8.115945250E0,-1.673519897E-1,2.069446564E0,9.587412872E0,9.809643284E0
8.125950250E0,-1.571731567E-1,2.144739990E0,9.613458710E0,9.851050776E0
8.135956250E0,-1.451980591E-1,2.193987579E0,9.613309021E0,9.861560440E0
8.145961250E0,-2.103126526E-1,2.269580383E0,9.555978241E0,9.824049403E0
8.155967250E0,-3.119512939E-1,2.354603577E0,9.412875824E0,9.707919596E0
8.165972250E0,-4.044589233E-1,2.398312683E0,9.271419983E0,9.585130111E0
8.175977250E0,-4.993615723E-1,2.464026031E0,9.183253326E0,9.521183116E0
8.185983250E0,-5.620811462E-1,2.526146851E0,9.177265778E0,9.535174895E0
8.195988250E0,-5.697152710E-1,2.571801910E0,9.224717102E0,9.593442874E0
8.205994250E0,-5.152285767E-1,2.604134674E0,9.325457611E0,9.695934073E0
8.215999250E0,-4.836442566E-1,2.623444519E0,9.467212830E0,9.835877778E0
8.226005250E0,-4.478686523E-1,2.637066193E0,9.629625092E0,9.994217520E0
8.236010250E0,-4.004173279E-1,2.667602692E0,9.769284668E0,1.013485871E1
8.246015250E0,-3.014730835E-1,2.664908295E0,9.947414246E0,1.030260513E1
8.256021250E0,-2.850073242E-1,2.708168335E0,1.004935226E1,1.041176670E1
8.266026250E0,-2.152523804E-1,2.737657013E0,1.008587631E1,1.045303786E1
8.276028500E0,-1.517843628E-1,2.725831604E0,1.013856674E1,1.049970152E1
8.286033500E0,-1.219963074E-1,2.733615417E0,1.010144394E1,1.046550075E1
8.296039500E0,-1.225950623E-1,2.777025146E0,9.991572418E0,1.037103744E1
8.306044500E0,-1.552272034E-1,2.838547211E0,9.774823151E0,1.017981401E1
8.316049500E0,-3.360511780E-1,2.956352234E0,9.443262634E0,9.900917034E0
8.326055500E0,-7.042854309E-1,3.170706482E0,9.118138733E0,9.679351813E0
8.336060500E0,-1.007105713E0,3.342549133E0,9.051976318E0,9.701812815E0
8.346066500E0,-1.082548828E0,3.331322479E0,9.372609558E0,1.000576990E1
8.356071500E0,-1.071172485E0,3.104843445E0,1.002764740E1,1.055183281E1
8.366077500E0,-8.846603394E-1,2.739153900E0,1.084165466E1,1.121726633E1
8.376082500E0,-4.921765137E-1,2.217638397E0,1.167152893E1,1.189053175E1
8.386087500E0,-9.355545044E-2,1.597927094E0,1.224812988E1,1.235227952E1
8.396093500E0,4.005670166E-1,9.367520142E-1,1.231803452E1,1.236009436E1
8.406098500E0,6.584806824E-1,6.173162842E-1,1.187136337E1,1.190562659E1
8.416104500E0,6.899153137E-1,7.514373779E-1,1.105106918E1,1.109805259E1
8.426109500E0,5.273533630E-1,1.174457703E0,1.029364426E1,1.037384040E1
8.436115500E0,1.496887207E-4,1.859283600E0,9.322763214E0,9.506358371E0
8.446120500E0,-4.233197021E-1,2.326462097E0,8.502019958E0,8.824736191E0
8.456125500E0,-7.782316589E-1,2.636766815E0,8.027357025E0,8.485083651E0
8.466131500E0,-1.080303497E0,2.892734528E0,7.732919312E0,8.326644569E0
8.476136500E0,-1.276695099E0,2.955304413E0,7.627239075E0,8.278801269E0
8.486142500E0,-1.376088409E0,2.868634644E0,7.609426117E0,8.247790605E0
8.496147500E0,-1.353186035E0,2.750979309E0,7.770042114E0,8.352996711E0
8.506153500E0,-1.205592957E0,2.598596191E0,8.004454651E0,8.501614600E0
8.516158500E0,-1.075513458E0,2.474055176E0,8.179740143E0,8.613119471E0
8.526163500E0,-1.030906219E0,2.443967743E0,8.378676453E0,8.788513245E0
8.536169500E0,-9.533674622E-1,2.410736847E0,8.618477783E0,8.999928942E0
8.546174500E0,-8.102650452E-1,2.302960968E0,8.888665924E0,9.217838172E0
8.556180500E0,-6.703060913E-1,2.195484467E0,9.304052124E0,9.583050048E0
8.566185500E0,-5.053491211E-1,2.073039093E0,9.801767120E0,1.003132631E1
8.576191500E0,-2.971321106E-1,1.914668427E0,1.026385620E1,1.044514178E1
8.586196500E0,-4.745132446E-2,1.737137604E0,1.059945831E1,1.074096901E1
8.596202500E0,1.966909790E-1,1.613494720E0,1.072579559E1,1.084825994E1
8.606207500E0,3.643423462E-1,1.588496704E0,1.070154602E1,1.082493207E1
8.616212500E0,4.303550720E-1,1.668280792E0,1.056922119E1,1.070872555E1
8.626218500E0,3.399430847E-1,1.857487335E0,1.030756531E1,1.047910889E1
8.636223500E0,1.354682922E-1,2.106719055E0,9.978250122E0,1.019912214E1
8.646229500E0,-5.194198608E-2,2.283950500E0,9.672286377E0,9.938422994E0
8.656234500E0,-1.547781372E-1,2.413880310E0,9.366023254E0,9.673322388E0
8.666240500E0,-2.342628479E-1,2.540367279E0,9.136700134E0,9.486181231E0
8.676245500E0,-2.757266235E-1,2.573149109E0,9.051976318E0,9.414637368E0
8.686250500E0,-2.830613708E-1,2.611020355E0,9.009464722E0,9.384455531E0
8.696256500E0,-2.781216431E-1,2.700234833E0,9.015003204E0,9.414823555E0
8.706261500E0,-2.853067017E-1,2.770289154E0,9.076076202E0,9.493737996E0
8.716267500E0,-2.658471680E-1,2.856958923E0,9.167835388E0,9.606356995E0
8.726272500E0,-2.327659607E-1,2.893482971E0,9.312734070E0,9.754662452E0
8.736278500E0,-2.240840149E-1,2.913541260E0,9.391170959E0,9.835295029E0
8.746283500E0,-2.249821472E-1,2.918780365E0,9.432185669E0,9.876032720E0
8.756288500E0,-2.058219910E-1,2.906805267E0,9.436077576E0,9.875800705E0
8.766294500E0,-2.128573608E-1,2.894979858E0,9.419312439E0,9.856452884E0
8.776299500E0,-2.549198914E-1,2.896177368E0,9.336534576E0,9.778737413E0
8.786305500E0,-3.040177917E-1,2.900518341E0,9.291178894E0,9.738143494E0
8.796310500E0,-3.393443298E-1,2.895578613E0,9.238787842E0,9.687865135E0
8.806316500E0,-3.701802063E-1,2.843936005E0,9.280101929E0,9.713150734E0
8.816321500E0,-4.007167053E-1,2.792443085E0,9.339528351E0,9.756285260E0
8.826326500E0,-4.263134766E-1,2.727478180E0,9.449549561E0,9.844534895E0
8.836332500E0,-3.984713745E-1,2.634371796E0,9.587113495E0,9.950449204E0
8.846337500E0,-3.643423462E-1,2.555186462E0,9.746681671E0,1.008263491E1
8.856343500E0,-2.796185303E-1,2.480940857E0,9.931696930E0,1.024069617E1
8.866348500E0,-1.950444031E-1,2.388732605E0,1.003797592E1,1.032012822E1
8.876354500E0,-1.552272034E-1,2.330204315E0,1.009201355E1,1.035870094E1
8.886359500E0,-1.151106262E-1,2.304757233E0,1.006776398E1,1.032884446E1
8.896365500E0,-8.951385498E-2,2.315235443E0,1.000309845E1,1.026792610E1
8.906370500E0,-6.616241455E-2,2.370919647E0,9.915530548E0,1.019526280E1
8.916375500E0,-8.487350464E-2,2.498903503E0,9.746831360E0,1.006242733E1
8.926381500E0,-1.941462708E-1,2.683469696E0,9.412726135E0,9.789694361E0
8.936386500E0,-4.465214539E-1,2.964285736E0,9.052425385E0,9.535867904E0
8.946392500E0,-7.167095947E-1,3.198847961E0,8.824898529E0,9.414092360E0
8.956397500E0,-8.812174988E-1,3.234473877E0,8.789272614E0,9.406895270E0
8.966403500E0,-9.446855164E-1,3.184477844E0,9.041947174E0,9.632763807E0
8.976408500E0,-1.049766998E0,3.077151031E0,9.684261475E0,1.021546815E1
8.986413500E0,-9.125024414E-1,2.612666931E0,1.066816544E1,1.102127229E1
8.996419500E0,-3.017724609E-1,1.879042511E0,1.163126266E1,1.178592969E1
9.006424500E0,3.348536682E-1,1.172661438E0,1.231773514E1,1.237795867E1
9.016430500E0,1.118324432E0,5.553451538E-1,1.261756165E1,1.267919239E1
9.026435500E0,1.690285034E0,2.950364685E-1,1.246862137E1,1.258612843E1
9.036441500E0,1.734892273E0,4.662803650E-1,1.176613220E1,1.190248443E1
9.046446500E0,1.745220795E0,1.046623535E0,1.105511078E1,1.124084920E1
9.056452500E0,1.561253357E0,1.812281342E0,1.028361511E1,1.055815398E1
9.066457500E0,1.309177551E0,2.405647430E0,9.233848114E0,9.631460762E0
9.076462500E0,1.061891785E0,2.804717560E0,8.567433929E0,9.077167999E0
9.086468500E0,8.381071472E-1,3.081941071E0,8.169112244E0,8.771270102E0
9.096473500E0,7.867639160E-1,3.197800140E0,8.039930878E0,8.688234096E0
9.106479500E0,7.340734863E-1,3.152145081E0,8.005203094E0,8.634706658E0
9.116484500E0,7.861651611E-1,3.014730835E0,8.110883331E0,8.688675738E0
9.126490500E0,8.572673035E-1,2.911744995E0,8.391250305E0,8.923354068E0
9.136495500E0,9.524693298E-1,2.731370087E0,8.759484558E0,9.224757455E0
9.146500500E0,1.058149567E0,2.527793427E0,9.067094879E0,9.472150213E0
9.156506500E0,1.084045715E0,2.399061127E0,9.373507690E0,9.736184870E0
9.166511500E0,1.074166260E0,2.337539063E0,9.686806183E0,1.002258131E1
9.176517500E0,1.084195404E0,2.283950500E0,9.946965179E0,1.026323662E1
9.186522500E0,1.065783691E0,2.244133301E0,1.008063721E1,1.038225773E1
9.196528500E0,1.017434235E0,2.214345245E0,1.011955627E1,1.040883838E1
9.206533500E0,9.244775391E-1,2.196532288E0,1.004156845E1,1.032048980E1
9.216539500E0,7.542814636E-1,2.213147736E0,9.780810699E0,1.005640201E1
9.226544500E0,5.046006775E-1,2.288890228E0,9.425299988E0,9.712359146E0
9.236549500E0,2.565664673E-1,2.387086029E0,9.062454529E0,9.375078034E0
9.246555500E0,3.787124634E-2,2.525398407E0,8.685538330E0,9.045310798E0
9.256560500E0,-1.365161133E-1,2.690654755E0,8.418194275E0,8.838792593E0
9.266566500E0,-1.966909790E-1,2.847528534E0,8.341254272E0,8.816100551E0
9.276571500E0,-2.222877502E-1,2.976410522E0,8.328081665E0,8.846772048E0
9.286577500E0,-1.755848694E-1,3.081192627E0,8.386759644E0,8.936571791E0
9.296582500E0,-8.337661743E-2,3.148552551E0,8.509953461E0,9.074119392E0
9.306588500E0,-0.000000000E0,3.161425781E0,8.640781403E0,9.200962788E0
9.316593500E0,5.134323120E-2,3.185974731E0,8.743018799E0,9.305560103E0
9.326598500E0,7.020401001E-2,3.217708740E0,8.865015106E0,9.431175482E0
9.336604500E0,7.768844604E-2,3.208128662E0,8.984167328E0,9.540093688E0
9.346609500E0,6.556365967E-2,3.209475861E0,9.041947174E0,9.594886273E0
9.356615500E0,2.694396973E-2,3.226540375E0,9.093440094E0,9.648934734E0
9.366620500E0,-3.143463135E-2,3.268752594E0,9.075776825E0,9.646525625E0
9.376626500E0,-9.565109253E-2,3.329526215E0,9.044192505E0,9.638065782E0
9.386631500E0,-1.347198486E-1,3.388952637E0,8.987460480E0,9.606122802E0
9.396637500E0,-1.872605896E-1,3.430266724E0,8.915310516E0,9.554295261E0
9.406642500E0,-2.775228882E-1,3.484154663E0,8.860973511E0,9.525397851E0
9.416647500E0,-2.960842896E-1,3.543730774E0,8.807235260E0,9.498056992E0
9.426653500E0,-3.031196594E-1,3.550466766E0,8.811127167E0,9.504402019E0
9.436658500E0,-2.896476746E-1,3.572471008E0,8.850046234E0,9.548285879E0
9.446664500E0,-2.869532776E-1,3.593427429E0,8.880882111E0,9.584629880E0
9.456669500E0,-3.149450684E-1,3.569776611E0,8.947792969E0,9.638749632E0
9.466675500E0,-3.076103210E-1,3.522474976E0,9.041348419E0,9.708163333E0
9.476680500E0,-2.836601257E-1,3.483705597E0,9.142238617E0,9.787604134E0
9.486686500E0,-2.404000854E-1,3.468886414E0,9.266180878E0,9.897124492E0
9.496691500E0,-1.895059204E-1,3.434158630E0,9.397457886E0,1.000707613E1
9.506696500E0,-1.329235840E-1,3.421135712E0,9.495354309E0,1.009374022E1
9.516702500E0,-4.176315308E-2,3.412154388E0,9.646390228E0,1.023217407E1
9.526707500E0,5.538482666E-2,3.433859253E0,9.776918793E0,1.036255750E1
9.536713500E0,1.745370483E-1,3.440146179E0,9.829160156E0,1.041525124E1
9.546718500E0,2.978805542E-1,3.482657776E0,9.814191284E0,1.041806069E1
9.556724500E0,3.776646423E-1,3.596271515E0,9.698032837E0,1.035024832E1
9.566729500E0,3.040177917E-1,3.776646423E0,9.370214539E0,1.010724520E1
9.576734500E0,3.757186890E-2,4.060007172E0,8.979826355E0,9.855067288E0
9.586740500E0,-2.853067017E-1,4.304748230E0,8.747210083E0,9.753252866E0
9.596745500E0,-4.433779907E-1,4.321513367E0,8.783734131E0,9.799288092E0
9.606751500E0,-5.272036743E-1,4.234095154E0,9.046737213E0,1.000244768E1
9.616756500E0,-5.658233643E-1,4.157005463E0,9.595496063E0,1.047255438E1
9.626762500E0,-3.493734741E-1,3.792513428E0,1.040965302E1,1.108449800E1
9.636767500E0,7.484436035E-2,3.210523682E0,1.109432922E1,1.154977077E1
9.646773500E0,4.558021545E-1,2.714604950E0,1.144699585E1,1.177329816E1
9.656778500E0,8.674461365E-1,2.304607544E0,1.141675873E1,1.167930043E1
9.666783500E0,1.023421783E0,2.054028625E0,1.092218719E1,1.116067197E1
9.676789500E0,8.439450073E-1,2.156116333E0,1.007869125E1,1.034123292E1
9.686794500E0,4.013154602E-1,2.625091095E0,9.138197021E0,9.516238866E0
9.696800500E0,-1.434017944E-1,3.063080292E0,8.304131470E0,8.852210143E0
9.706805500E0,-4.918771362E-1,3.308270416E0,7.743397522E0,8.434856338E0
9.716811500E0,-8.547225952E-1,3.536994781E0,7.473059692E0,8.311889314E0
9.726816500E0,-1.121318207E0,3.634741516E0,7.415728912E0,8.334370745E0
9.736822500E0,-1.157842255E0,3.533551941E0,7.480244751E0,8.353481283E0
9.746827500E0,-1.093326416E0,3.347937927E0,7.632029114E0,8.405469613E0
9.756833500E0,-1.003064117E0,3.227887573E0,7.887398071E0,8.581167994E0
9.766838500E0,-9.377998352E-1,3.160527649E0,8.148455200E0,8.790092474E0
9.776843500E0,-8.439450073E-1,3.108136597E0,8.363408203E0,8.962106507E0
9.786849500E0,-7.200027466E-1,2.996917877E0,8.637637939E0,9.171080083E0
9.796854500E0,-6.472540283E-1,2.902164917E0,9.007369080E0,9.485472931E0
9.806860500E0,-5.261558533E-1,2.832260284E0,9.476343842E0,9.904525779E0
9.816865500E0,-3.662882996E-1,2.729124756E0,9.947863312E0,1.032193168E1
9.826871500E0,-1.995350647E-1,2.610870667E0,1.032313293E1,1.065004852E1
9.836876500E0,-7.334747314E-3,2.514171753E0,1.062999481E1,1.092327346E1
9.846882500E0,1.781295776E-1,2.439327393E0,1.077459412E1,1.104870701E1
9.856887500E0,2.233355713E-1,2.422562256E0,1.068358337E1,1.095708175E1
9.866892500E0,1.240919495E-1,2.517614594E0,1.041549088E1,1.071616686E1
9.876898500E0,-7.694000244E-2,2.719993744E0,1.000953506E1,1.037280473E1
9.886903500E0,-3.597019958E-1,2.958447876E0,9.513915710E0,9.969773894E0
9.896909500E0,-5.604345703E-1,3.149151306E0,9.030271454E0,9.580033580E0
9.906914500E0,-6.703060913E-1,3.315455475E0,8.663983154E0,9.300868742E0
9.916920500E0,-7.569758606E-1,3.428919525E0,8.399183807E0,9.103669051E0
9.926925500E0,-7.346722412E-1,3.501518555E0,8.225245514E0,8.969673308E0
9.936931500E0,-6.962022400E-1,3.551664276E0,8.149802399E0,8.917303170E0
9.946936500E0,-6.773414612E-1,3.629801788E0,8.180039520E0,8.974814707E0
9.956941500E0,-6.554869080E-1,3.659440155E0,8.299790497E0,9.094376704E0
9.966947500E0,-5.867797852E-1,3.667822723E0,8.460256805E0,9.239760779E0
9.976952500E0,-5.364843750E-1,3.704646149E0,8.611891479E0,9.390255238E0
9.986958500E0,-5.704637146E-1,3.699856110E0,8.773555298E0,9.538848811E0
9.996963500E0,-5.557942200E-1,3.663332062E0,8.913364563E0,9.652822222E0
1.000696950E1,-5.834866333E-1,3.611240387E0,9.066496124E0,9.776649004E0
1.001697450E1,-6.500981140E-1,3.569327545E0,9.178762665E0,9.869772578E0
1.002698050E1,-7.024891663E-1,3.529210968E0,9.227860565E0,9.904657071E0
1.003698550E1,-7.753875732E-1,3.530258789E0,9.264384613E0,9.944484666E0
1.004699150E1,-7.982899475E-1,3.521576843E0,9.358089752E0,1.003058394E1
1.005699650E1,-7.982899475E-1,3.468886414E0,9.474248199E0,1.012086057E1
1.006700150E1,-8.283773804E-1,3.398233337E0,9.578132172E0,1.019680415E1
1.007700750E1,-7.370672607E-1,3.409459991E0,9.716594238E0,1.032375364E1
1.008701250E1,-6.979985046E-1,3.387156372E0,9.835896149E0,1.042616340E1
1.009701850E1,-7.170089722E-1,3.380719757E0,9.846074982E0,1.043496816E1
1.010702350E1,-7.423063660E-1,3.460354156E0,9.794432373E0,1.041421985E1
1.011702950E1,-7.490423584E-1,3.450175323E0,9.828561401E0,1.044343782E1
1.012703450E1,-7.294331360E-1,3.416195984E0,9.823921051E0,1.042649953E1
1.013704050E1,-6.712042236E-1,3.357368317E0,9.864935760E0,1.044219300E1
1.014704550E1,-5.965095520E-1,3.266956329E0,9.940977631E0,1.048102397E1
1.015705050E1,-5.135820007E-1,3.211421814E0,1.002615051E1,1.054043124E1
1.016705650E1,-4.379891968E-1,3.174448700E0,1.012374756E1,1.061881461E1
1.017706150E1,-3.667373657E-1,3.202590179E0,1.015712814E1,1.065637519E1
1.018706750E1,-3.089575195E-1,3.289259949E0,1.009695328E1,1.062370704E1
1.019707250E1,-4.457730103E-1,3.421435089E0,9.799372101E0,1.038906277E1
1.020707850E1,-6.911128235E-1,3.537443848E0,9.469607849E0,1.013235504E1
1.021708350E1,-8.343649292E-1,3.517535248E0,9.311237183E0,9.988411131E0
1.022708950E1,-7.936495972E-1,3.486100616E0,9.365125122E0,1.002438755E1
1.023709450E1,-7.277865601E-1,3.438200226E0,9.555529175E0,1.018130797E1
1.024710050E1,-6.253994751E-1,3.254981232E0,9.894574127E0,1.043497123E1
1.025710550E1,-3.462300110E-1,2.956801300E0,1.041159897E1,1.082884769E1
1.026711050E1,-6.436614990E-3,2.541864166E0,1.094808334E1,1.123929018E1
1.027711700E1,2.526745605E-1,2.137854309E0,1.144250519E1,1.164324656E1
1.028712200E1,4.999603271E-1,1.802701263E0,1.176238998E1,1.191022713E1
1.029712800E1,7.533833313E-1,1.487905884E0,1.174801987E1,1.186580891E1
1.030713300E1,9.003776550E-1,1.390907593E0,1.138008499E1,1.150007123E1
1.031713900E1,8.747808838E-1,1.629062347E0,1.074226135E1,1.090024150E1
1.032714400E1,6.962022400E-1,2.035916290E0,9.934690704E0,1.016502494E1
1.033715000E1,4.725672913E-1,2.490970001E0,9.200018463E0,9.542986488E0
1.034715500E1,3.061134338E-1,2.906056824E0,8.625513153E0,9.107049404E0
1.035716100E1,2.092648315E-1,3.201392670E0,8.278534698E0,8.878448262E0
1.036716600E1,1.576222229E-1,3.350782013E0,8.127049713E0,8.792128406E0
1.037717100E1,2.056723022E-1,3.327580261E0,8.091423798E0,8.751355927E0
1.038717700E1,2.863545227E-1,3.209625549E0,8.201145630E0,8.811497303E0
1.039718200E1,3.662882996E-1,3.039878540E0,8.361013184E0,8.904019885E0
1.040718800E1,3.712280273E-1,2.890638885E0,8.513396301E0,8.998417639E0
1.041719300E1,3.061134338E-1,2.764151917E0,8.655450897E0,9.091263470E0
1.042719900E1,2.921923828E-1,2.699187012E0,8.856782227E0,9.263561859E0
1.043720400E1,3.412902832E-1,2.585573273E0,9.135652313E0,9.500621632E0
1.044721000E1,4.083508301E-1,2.490371246E0,9.419611816E0,9.751809377E0
1.045721500E1,4.692741394E-1,2.412982178E0,9.698182526E0,1.000487109E1
1.046722100E1,5.291496277E-1,2.324067078E0,9.795480194E0,1.008130544E1
1.047722600E1,4.749623108E-1,2.351759491E0,9.755213928E0,1.004592259E1
1.048723200E1,3.290158081E-1,2.429447937E0,9.596094818E0,9.904317465E0
1.049723700E1,6.721023560E-2,2.537672882E0,9.349407806E0,9.687916556E0
1.050724200E1,-2.151026917E-1,2.697989502E0,9.026678925E0,9.423712057E0
1.051724800E1,-4.296066284E-1,2.811004486E0,8.683592377E0,9.137345601E0
1.052725300E1,-5.649252319E-1,2.854563904E0,8.477620697E0,8.963131611E0
1.053725900E1,-6.439608765E-1,2.925815735E0,8.333021393E0,8.855186551E0
1.054726400E1,-6.846762085E-1,3.022514648E0,8.242310028E0,8.805682876E0
1.055727000E1,-6.421646118E-1,3.093766479E0,8.250393219E0,8.834747007E0
1.056727500E1,-5.896238708E-1,3.168012085E0,8.322842560E0,8.924890204E0
1.057728100E1,-5.099894714E-1,3.214116211E0,8.439001007E0,9.044742687E0
1.058728600E1,-4.059558105E-1,3.256777496E0,8.572074280E0,9.178881045E0
1.059729200E1,-3.760180664E-1,3.312162323E0,8.665030975E0,9.284103115E0
1.060729700E1,-3.881428528E-1,3.339405670E0,8.770711212E0,9.392958015E0
1.061730200E1,-3.406915283E-1,3.327879639E0,8.877888336E0,9.487241692E0
1.062730800E1,-3.005749512E-1,3.288062439E0,8.964258728E0,9.552990864E0
1.063731300E1,-2.899470520E-1,3.259322205E0,9.023236084E0,9.598231085E0
1.064731900E1,-2.806663513E-1,3.227438507E0,9.080566864E0,9.641152809E0
1.065732400E1,-2.773731995E-1,3.195854187E0,9.066047058E0,9.616840912E0
1.066733000E1,-3.010240173E-1,3.201692047E0,9.031019897E0,9.586488816E0
1.067733500E1,-3.053649902E-1,3.264860687E0,9.001830597E0,9.580475833E0
1.068734100E1,-3.341052246E-1,3.368145905E0,8.959768066E0,9.577759495E0
1.069734600E1,-3.573069763E-1,3.467688904E0,8.929081879E0,9.585459708E0
1.070735200E1,-3.733236694E-1,3.542533264E0,8.905880127E0,9.591851402E0
1.071735700E1,-3.969744873E-1,3.570674744E0,8.899892578E0,9.597676530E0
1.072736200E1,-4.017645264E-1,3.584895172E0,8.931925964E0,9.632870266E0
1.073736800E1,-3.766168213E-1,3.582799530E0,8.976233826E0,9.672180023E0
1.074737300E1,-3.562591553E-1,3.583997040E0,9.061855774E0,9.751368388E0
1.075737900E1,-2.968327332E-1,3.577560425E0,9.196425934E0,9.872248894E0
1.076738400E1,-2.395019531E-1,3.537743225E0,9.281598816E0,9.935847467E0
1.077739000E1,-2.305206299E-1,3.507955170E0,9.311386871E0,9.952929956E0
1.078739500E1,-2.061213684E-1,3.480562134E0,9.342222748E0,9.971656064E0
1.079740100E1,-1.713935852E-1,3.463946686E0,9.352850647E0,9.975175068E0
1.080740600E1,-1.278341675E-1,3.472029877E0,9.400900726E0,1.002238831E1
1.081741200E1,-6.286926270E-2,3.484304352E0,9.453142090E0,1.007502976E1
1.082741700E1,1.272354126E-2,3.453917542E0,9.492959290E0,1.010178125E1
1.083742300E1,3.682342529E-2,3.477568359E0,9.459429016E0,1.007847384E1
1.084742800E1,-1.122665405E-2,3.553460541E0,9.289083252E0,9.945565621E0
1.085743400E1,-2.281256104E-1,3.718267822E0,8.979676666E0,9.721735952E0
1.086743900E1,-5.902226257E-1,3.978127441E0,8.748706970E0,9.628797139E0
1.087744500E1,-8.231382751E-1,4.133654022E0,8.763675842E0,9.724539396E0
1.088745000E1,-9.604028320E-1,4.109254761E0,8.980724487E0,9.922789961E0
1.089745500E1,-9.777667236E-1,3.930825806E0,9.507778473E0,1.033466355E1
1.090746100E1,-7.685018921E-1,3.592229919E0,1.019320312E1,1.083494813E1
1.091746600E1,-5.132826233E-1,3.202141113E0,1.085213287E1,1.132633898E1
1.092747200E1,-2.395019531E-1,2.734513550E0,1.134326157E1,1.167066873E1
1.093747700E1,5.313949585E-2,2.268682251E0,1.151315826E1,1.173467325E1
1.094748300E1,2.047741699E-1,1.988015900E0,1.137843842E1,1.155261877E1
1.095748800E1,2.806663513E-1,1.923949127E0,1.084644470E1,1.101933376E1
1.096749400E1,1.555265808E-1,2.063159637E0,1.007629623E1,1.028652332E1
1.097749900E1,-2.725831604E-1,2.441572723E0,9.186546478E0,9.509375118E0
1.098750500E1,-6.581813049E-1,2.827619934E0,8.338260498E0,8.829225632E0
1.099751000E1,-9.427395630E-1,3.102448425E0,7.780220947E0,8.428866003E0
1.100751600E1,-1.153800659E0,3.317251740E0,7.487878876E0,8.270655665E0
1.101752100E1,-1.214274902E0,3.328478394E0,7.403155060E0,8.207309961E0
1.102752600E1,-1.184935913E0,3.278931427E0,7.532037048E0,8.299822078E0
1.103753200E1,-1.055006104E0,3.141666870E0,7.786058807E0,8.462022238E0
1.104753700E1,-9.181906128E-1,2.957250366E0,8.118966522E0,8.689420068E0
1.105754300E1,-8.303233337E-1,2.808160400E0,8.461005249E0,8.953424568E0
1.106754800E1,-7.318281555E-1,2.704575806E0,8.920100555E0,9.349785915E0
1.107755400E1,-6.496490479E-1,2.580783234E0,9.418264618E0,9.787042168E0
1.108755900E1,-5.029541016E-1,2.455493774E0,9.888287201E0,1.020101153E1
1.109756500E1,-3.332070923E-1,2.404449921E0,1.034468811E1,1.062567544E1
1.110757000E1,-1.116677856E-1,2.309247894E0,1.069840256E1,1.094536033E1
1.111757600E1,5.822891235E-2,2.181114349E0,1.087862778E1,1.109527795E1
1.112758100E1,1.507365417E-1,2.123484192E0,1.093191696E1,1.113726695E1
1.113758700E1,1.624122620E-1,2.159708862E0,1.078342575E1,1.099877225E1
1.114759200E1,6.137237549E-2,2.261796570E0,1.049138306E1,1.073259562E1
1.115759800E1,-1.580712891E-1,2.404300232E0,1.004770569E1,1.033257159E1
1.116760300E1,-4.266128540E-1,2.634371796E0,9.518106995E0,9.885154225E0
1.117760900E1,-6.060896301E-1,2.817740479E0,9.085805969E0,9.531992245E0
1.118761400E1,-7.457492065E-1,2.964734802E0,8.777147827E0,9.294305693E0
1.119761900E1,-8.294252014E-1,3.128494263E0,8.473579102E0,9.070665097E0
1.120762500E1,-8.387059021E-1,3.227438507E0,8.307723999E0,8.951986648E0
1.121763000E1,-8.069718933E-1,3.293600922E0,8.273894348E0,8.941830817E0
1.122763600E1,-7.937992859E-1,3.343297577E0,8.302484894E0,8.985488935E0
1.123764100E1,-7.444020081E-1,3.388054504E0,8.423433380E0,9.109735319E0
1.124764700E1,-6.650669861E-1,3.370241547E0,8.616831207E0,9.276347462E0
1.125765200E1,-6.414161682E-1,3.340004425E0,8.826545105E0,9.459119555E0
1.126765800E1,-6.312373352E-1,3.335364075E0,8.968599701E0,9.589520044E0
1.127766288E1,-6.599775696E-1,3.345243530E0,9.116641846E0,9.733415804E0
1.128766888E1,-7.235952759E-1,3.335813141E0,9.293424225E0,9.900453184E0
1.129767388E1,-7.581733704E-1,3.327430573E0,9.473350067E0,1.006930894E1
1.130767987E1,-7.062313843E-1,3.287912750E0,9.656119995E0,1.022495899E1
1.131768487E1,-6.848258972E-1,3.275638275E0,9.808503113E0,1.036366373E1
1.132769087E1,-6.499484253E-1,3.252586212E0,9.904902649E0,1.044551801E1
1.133769587E1,-6.500981140E-1,3.268303528E0,9.916428680E0,1.046135714E1
1.134770188E1,-6.521937561E-1,3.270399170E0,9.870174866E0,1.041831173E1
1.135770688E1,-6.831793213E-1,3.272045746E0,9.809550934E0,1.036341193E1
1.136771188E1,-7.509883118E-1,3.281176758E0,9.734856262E0,1.030036557E1
1.137771788E1,-8.089178467E-1,3.292702789E0,9.642198944E0,1.022097061E1
1.138772287E1,-8.840615845E-1,3.285667419E0,9.600136414E0,1.018527341E1
1.139772887E1,-8.761280823E-1,3.234324188E0,9.647887115E0,1.021323549E1
1.140773387E1,-7.930508423E-1,3.161874847E0,9.805509338E0,1.033316968E1
1.141773987E1,-6.902146912E-1,3.077450409E0,1.000309845E1,1.048852115E1
1.142774488E1,-5.921685791E-1,3.005450134E0,1.013961456E1,1.059222251E1
1.143775088E1,-5.538482666E-1,2.983146515E0,1.025607239E1,1.069546314E1
1.144775588E1,-5.465135193E-1,2.982996826E0,1.028421387E1,1.072203348E1
1.145776188E1,-4.930746460E-1,3.035088501E0,1.022912842E1,1.068128986E1
1.146776687E1,-4.537065125E-1,3.125799866E0,1.013527359E1,1.061603717E1
1.147777287E1,-4.978646851E-1,3.250340881E0,9.881102142E0,1.041387366E1
1.148777787E1,-6.188131714E-1,3.369044037E0,9.603130188E0,1.019575877E1
1.149778387E1,-6.788383484E-1,3.434008942E0,9.534722443E0,1.015697647E1
1.150778888E1,-5.920188904E-1,3.401975555E0,9.621242523E0,1.022214418E1
1.151779488E1,-5.439688110E-1,3.316353607E0,9.721084900E0,1.028560134E1
1.152779988E1,-5.315446472E-1,3.119812317E0,9.989027710E0,1.047837980E1
1.153780588E1,-3.974235535E-1,2.763553162E0,1.035232224E1,1.072220813E1
1.154781087E1,-2.044747925E-1,2.316582642E0,1.076142151E1,1.100983914E1
1.155781687E1,-7.858657837E-2,1.900747375E0,1.118504059E1,1.134566655E1
1.156782187E1,7.349716187E-2,1.546583862E0,1.154234756E1,1.164573359E1
1.157782687E1,2.592608643E-1,1.315913544E0,1.156105865E1,1.163859622E1
1.158783288E1,3.881428528E-1,1.230141907E0,1.127590164E1,1.134944324E1
1.159783788E1,3.963757324E-1,1.355581055E0,1.066247726E1,1.075560947E1
1.160784388E1,2.484832764E-1,1.746118927E0,9.899663544E0,1.005554641E1
1.161784888E1,-2.095642090E-2,2.284848633E0,9.102271729E0,9.384685560E0
1.162785487E1,-1.490899658E-1,2.728376312E0,8.483159180E0,8.912365275E0
1.163785987E1,-2.656974792E-1,3.048261108E0,8.144263916E0,8.700087682E0
1.164786587E1,-2.567161560E-1,3.253634033E0,8.016429749E0,8.655355771E0
1.165787087E1,-1.761836243E-1,3.211122437E0,8.042774963E0,8.661903779E0
1.166787688E1,-3.577560425E-2,3.049308929E0,8.172555084E0,8.722970907E0
1.167788188E1,1.326242065E-1,2.873724060E0,8.423433380E0,8.901129651E0
1.168788788E1,2.499801636E-1,2.685116272E0,8.648864594E0,9.059536314E0
1.169789288E1,3.338058472E-1,2.524200897E0,8.889713745E0,9.247163186E0
1.170789887E1,3.635939026E-1,2.456242218E0,9.163344727E0,9.493798657E0
1.171790387E1,4.194277954E-1,2.450853424E0,9.434730377E0,9.756881647E0
1.172790987E1,5.830375671E-1,2.497705994E0,9.680968323E0,1.001496958E1
1.173791487E1,6.816824341E-1,2.535876617E0,9.834548950E0,1.017908219E1
1.174792087E1,7.214996338E-1,2.564317474E0,9.874216461E0,1.022723993E1
1.175792588E1,7.361691284E-1,2.608924713E0,9.843081207E0,1.020953872E1
1.176793188E1,6.313870239E-1,2.702180786E0,9.678124237E0,1.006809413E1
1.177793688E1,4.742138672E-1,2.792293396E0,9.463320923E0,9.878067832E0
1.178794288E1,2.897973633E-1,2.917882233E0,9.120833130E0,9.580585380E0
1.179794787E1,6.301895142E-2,3.074756012E0,8.778045959E0,9.301192762E0
1.180795287E1,-1.646575928E-1,3.181184692E0,8.524323578E0,9.100062672E0
1.181795887E1,-3.426374817E-1,3.262914734E0,8.272996216E0,8.899802211E0
1.182796388E1,-4.390370178E-1,3.309617615E0,8.140372009E0,8.798407737E0
1.183796988E1,-4.544549561E-1,3.370241547E0,8.140671387E0,8.822447961E0
1.184797488E1,-4.457730103E-1,3.396586761E0,8.168064423E0,8.857358049E0
1.185798088E1,-4.257147217E-1,3.428021393E0,8.239915009E0,8.934694345E0
1.186798587E1,-3.847000122E-1,3.464096375E0,8.368198242E0,9.065026178E0
1.187799187E1,-3.188369751E-1,3.459456024E0,8.526568909E0,9.207164078E0
1.188799687E1,-2.318678284E-1,3.434008942E0,8.697812805E0,9.354043387E0
1.189800287E1,-1.724414062E-1,3.387306061E0,8.867859192E0,9.494340685E0
1.190800788E1,-1.393601990E-1,3.315305786E0,9.028175812E0,9.618660624E0
1.191801388E1,-1.496887207E-1,3.251837769E0,9.136700134E0,9.699285795E0
1.192801888E1,-1.869612122E-1,3.221001892E0,9.169931030E0,9.720979518E0
1.193802488E1,-2.228865051E-1,3.232378235E0,9.188791809E0,9.743297304E0
1.194802987E1,-2.640509033E-1,3.284619598E0,9.217082977E0,9.788414958E0
1.195803587E1,-2.983296204E-1,3.323239288E0,9.215286713E0,9.800736152E0
1.196804087E1,-3.308120728E-1,3.350931702E0,9.225914612E0,9.821185281E0
1.197804687E1,-3.784130859E-1,3.373983765E0,9.231453094E0,9.835989485E0
1.198805187E1,-4.843927002E-1,3.397933960E0,9.168434143E0,9.789830240E0
1.199805788E1,-5.433700562E-1,3.407214661E0,9.157955933E0,9.786343527E0
1.200806288E1,-5.266049194E-1,3.430416412E0,9.206155701E0,9.838616381E0
1.201806888E1,-5.037025452E-1,3.460054779E0,9.267977142E0,9.905609302E0
1.202807388E1,-5.031037903E-1,3.490591278E0,9.352401581E0,9.995236677E0
1.203807887E1,-4.707710266E-1,3.523223419E0,9.369316406E0,1.002091905E1
1.204808487E1,-4.683760071E-1,3.562890930E0,9.441915436E0,1.010264000E1
1.205808987E1,-4.707710266E-1,3.611689453E0,9.501341858E0,1.017553061E1
1.206809587E1,-4.375401306E-1,3.620820465E0,9.553433533E0,1.022594125E1
1.207810088E1,-3.814068604E-1,3.614982605E0,9.589209137E0,1.025507203E1
1.208810688E1,-3.101550293E-1,3.622766418E0,9.591155090E0,1.025723592E1
1.209811188E1,-2.724334717E-1,3.677402802E0,9.530531158E0,1.021902811E1
1.210811788E1,-2.989283752E-1,3.791166229E0,9.383237457E0,1.012459603E1
1.211812287E1,-5.174739075E-1,3.979923706E0,9.175768890E0,1.001510393E1
1.212812887E1,-8.214916992E-1,4.094285889E0,9.020391998E0,9.940095440E0
1.213813387E1,-1.007105713E0,3.995191956E0,9.053173828E0,9.946646522E0
1.214813987E1,-1.067280579E0,3.726800079E0,9.340576172E0,1.011308508E1
1.215814488E1,-1.096170502E0,3.350931702E0,9.878258057E0,1.048858023E1
1.216815088E1,-9.614506531E-1,2.792143707E0,1.051443512E1,1.092125449E1
1.217815588E1,-8.211923218E-1,2.254312134E0,1.103056183E1,1.128847086E1
1.218816188E1,-5.448669434E-1,1.850451965E0,1.141466309E1,1.157651009E1
1.219816687E1,-1.308279419E-1,1.651365967E0,1.148052612E1,1.159942264E1
1.220817287E1,8.262817383E-2,1.631906433E0,1.113714020E1,1.125636877E1
1.221817787E1,1.562750244E-1,1.827998657E0,1.051817734E1,1.067698719E1
1.222818387E1,1.320254517E-1,2.289189606E0,9.789492645E0,1.005445106E1
1.223818888E1,-1.546284485E-1,2.847977600E0,8.980874176E0,9.422896971E0
1.224819488E1,-3.827540588E-1,3.232228546E0,8.381670227E0,8.991451376E0
1.225819988E1,-6.056405640E-1,3.525319061E0,8.013435974E0,8.775524548E0
1.226820588E1,-8.095166016E-1,3.675756226E0,7.815846863E0,8.674904215E0
1.227821067E1,-8.722361755E-1,3.637884979E0,7.812254333E0,8.661773539E0
1.228821567E1,-8.538244629E-1,3.459905090E0,7.917335815E0,8.682405534E0
1.229822167E1,-8.288264465E-1,3.237018585E0,8.107440491E0,8.769026965E0
1.230822667E1,-7.975415039E-1,3.068319397E0,8.321046295E0,8.904519516E0
1.231823267E1,-8.024812317E-1,2.974913635E0,8.484207001E0,9.026397714E0
1.232823767E1,-7.970924377E-1,2.939138031E0,8.616531830E0,9.138846180E0
1.233824367E1,-7.246430969E-1,2.935695190E0,8.783584442E0,9.289497808E0
1.234824867E1,-6.460565186E-1,2.951861572E0,9.002129974E0,9.495747461E0
1.235825467E1,-5.270539856E-1,2.927162933E0,9.220974884E0,9.688779415E0
1.236825967E1,-3.592529297E-1,2.876867523E0,9.440268860E0,9.875429386E0
1.237826567E1,-1.960922241E-1,2.805166626E0,9.617799683E0,1.002045322E1
1.238827067E1,-1.169068909E-1,2.701282654E0,9.712702332E0,1.008202270E1
1.239827667E1,-8.128097534E-2,2.625689850E0,9.729617157E0,1.007801091E1
1.240828167E1,-4.924758911E-2,2.636467438E0,9.706864471E0,1.005865815E1
1.241828767E1,-5.927673340E-2,2.692600708E0,9.582323456E0,9.953619197E0
1.242829267E1,-9.490264893E-2,2.798131256E0,9.414522400E0,9.822004737E0
1.243829867E1,-1.320254517E-1,2.962190094E0,9.200617218E0,9.666610474E0
1.244830367E1,-2.392025757E-1,3.130739594E0,9.032367096E0,9.562552150E0
1.245830967E1,-2.715353394E-1,3.347339172E0,8.868457947E0,9.483035238E0
1.246831467E1,-2.718347168E-1,3.480861511E0,8.771459656E0,9.440804810E0
1.247832067E1,-3.005749512E-1,3.555556183E0,8.676706696E0,9.381767645E0
1.248832567E1,-3.005749512E-1,3.635789337E0,8.619824982E0,9.360058340E0
1.249833167E1,-3.372486877E-1,3.633843384E0,8.622818756E0,9.363309122E0
1.250833667E1,-4.107458496E-1,3.652404785E0,8.587791595E0,9.341249240E0
1.251834267E1,-4.971162415E-1,3.672762451E0,8.614136810E0,9.377614919E0
1.252834767E1,-5.435197449E-1,3.595523071E0,8.668623505E0,9.400437933E0
1.253835367E1,-5.346881104E-1,3.512894897E0,8.775201874E0,9.467338056E0
1.254835867E1,-5.370831299E-1,3.416345673E0,8.960965576E0,9.605143419E0
1.255836367E1,-5.171745300E-1,3.344195709E0,9.108858032E0,9.717119382E0
1.256836967E1,-4.843927002E-1,3.368894348E0,9.249565430E0,9.855888902E0
1.257837467E1,-5.239105225E-1,3.345842285E0,9.314979401E0,9.911507659E0
1.258838067E1,-5.565426636E-1,3.389102325E0,9.358089752E0,9.968430073E0
1.259838567E1,-5.809419250E-1,3.452121277E0,9.402098236E0,1.003265100E1
1.260839167E1,-6.074368286E-1,3.442690887E0,9.472601624E0,1.009709273E1
1.261839667E1,-6.692582703E-1,3.423830109E0,9.517059174E0,1.013631760E1
1.262840267E1,-7.303312683E-1,3.394191742E0,9.551936646E0,1.016333681E1
1.263840767E1,-7.503895569E-1,3.322490845E0,9.596992950E0,1.018353100E1
1.264841367E1,-7.538323975E-1,3.269501038E0,9.644893341E0,1.021184939E1
1.265841867E1,-7.134164429E-1,3.207230530E0,9.776469727E0,1.031380875E1
1.266842467E1,-6.125262451E-1,3.163371735E0,9.889784088E0,1.040143925E1
1.267842967E1,-5.387297058E-1,3.146157532E0,9.992470551E0,1.048990012E1
1.268843567E1,-4.837939453E-1,3.118465118E0,1.006551865E1,1.054862773E1
1.269844067E1,-4.438270569E-1,3.149450684E0,1.014769775E1,1.063446246E1
1.270844667E1,-3.962260437E-1,3.185076599E0,1.016566040E1,1.066031704E1
1.271845167E1,-3.760180664E-1,3.252586212E0,1.005459137E1,1.057428552E1
1.272845767E1,-4.022135925E-1,3.362158356E0,9.873917084E0,1.043839658E1
1.273846267E1,-4.399351501E-1,3.537892914E0,9.568851471E0,1.021142241E1
1.274846867E1,-7.099736023E-1,3.853287048E0,9.147028656E0,9.950880204E0
1.275847367E1,-1.082698517E0,4.173171844E0,8.788823547E0,9.789331881E0
1.276847967E1,-1.198258209E0,4.214336243E0,8.686735840E0,9.729122892E0
1.277848467E1,-1.150806885E0,4.132755890E0,8.790919189E0,9.781834589E0
1.278849067E1,-1.052012329E0,4.060755615E0,9.153465271E0,1.006888239E1
1.279849567E1,-8.747808838E-1,3.740122375E0,9.885892181E0,1.060587673E1
1.280850167E1,-4.921765137E-1,3.144660645E0,1.082399139E1,1.128228337E1
1.281850667E1,8.861572266E-2,2.433938599E0,1.174876831E1,1.199856102E1
1.282851267E1,4.279600525E-1,1.796114960E0,1.241233841E1,1.254891723E1
1.283851767E1,8.337661743E-1,1.243015137E0,1.265692978E1,1.274512158E1
1.284852367E1,9.803114319E-1,9.692344666E-1,1.240260864E1,1.247898742E1
1.285852867E1,8.788224792E-1,1.076860657E0,1.160895905E1,1.169187273E1
1.286853467E1,5.903723145E-1,1.598376160E0,1.061367874E1,1.074958242E1
1.287853967E1,2.362088013E-1,2.192790070E0,9.590556335E0,9.840878706E0
1.288854467E1,5.777984619E-2,2.658920746E0,8.718170471E0,9.114806329E0
1.289855067E1,-7.140151978E-2,3.038681030E0,8.173004150E0,8.719901228E0
1.290855567E1,-9.430389404E-2,3.313359833E0,7.938591614E0,8.602818341E0
1.291856167E1,4.730163574E-2,3.381168823E0,7.961943054E0,8.650264577E0
1.292856667E1,2.998265076E-1,3.148851929E0,8.131690063E0,8.725224793E0
1.293857267E1,5.072950745E-1,3.013683014E0,8.384514313E0,8.924108575E0
1.294857767E1,5.574407959E-1,2.838996277E0,8.655600586E0,9.126338894E0
1.295858367E1,5.777984619E-1,2.644101562E0,8.840316467E0,9.245340414E0
1.296858867E1,6.438111877E-1,2.526446228E0,9.108858032E0,9.474635510E0
1.297859467E1,6.795867920E-1,2.450703735E0,9.398505707E0,9.736513571E0
1.298859967E1,7.232958984E-1,2.429447937E0,9.651779022E0,9.979088762E0
1.299860567E1,8.129594421E-1,2.420167236E0,9.845775604E0,1.017140156E1
1.300861067E1,8.560697937E-1,2.468965759E0,9.911938019E0,1.025061767E1
1.301861667E1,8.322692871E-1,2.578388214E0,9.868977356E0,1.023413269E1
1.302862167E1,7.454498291E-1,2.712808685E0,9.721533966E0,1.012043720E1
1.303862767E1,5.649252319E-1,2.838397522E0,9.425749054E0,9.860039870E0
1.304863267E1,2.505789185E-1,3.015030212E0,9.017697601E0,9.511680556E0
1.305863867E1,-4.595443726E-2,3.092568970E0,8.698261871E0,9.231784997E0
1.306864367E1,-2.285746765E-1,3.077151031E0,8.461753693E0,9.006796345E0
1.307864967E1,-3.719764709E-1,3.072810059E0,8.339907074E0,8.895761809E0
1.308865467E1,-4.405339050E-1,3.121608582E0,8.327482910E0,8.904239545E0
1.309866067E1,-3.920347595E-1,3.148253174E0,8.415350189E0,8.993514780E0
1.310866567E1,-3.071612549E-1,3.191064148E0,8.595874786E0,9.174219410E0
1.311867167E1,-1.892065430E-1,3.254981232E0,8.710236969E0,9.300480095E0
1.312867667E1,-1.170565796E-1,3.302731934E0,8.813222809E0,9.412472403E0
1.313868267E1,-6.646179199E-2,3.368145905E0,8.870703278E0,9.488846118E0
1.314868767E1,-4.340972900E-2,3.504212952E0,8.912765808E0,9.576992595E0
1.315869367E1,-3.787124634E-2,3.520828400E0,8.931476898E0,9.600465949E0
1.316869867E1,-1.811233521E-2,3.562741241E0,8.942703552E0,9.626286929E0
1.317870467E1,-2.245330811E-3,3.577261047E0,8.969797211E0,9.656814363E0
1.318870967E1,-3.188369751E-2,3.543581085E0,8.965007172E0,9.639986362E0
1.319871567E1,-5.074447632E-2,3.550766144E0,8.966504059E0,9.644102356E0
1.320872067E1,-7.379653931E-2,3.555556183E0,8.945547638E0,9.626538747E0
1.321872567E1,-1.028361511E-1,3.542233887E0,8.929830322E0,9.607281914E0
1.322873167E1,-1.242416382E-1,3.540587311E0,8.913514252E0,9.591763696E0
1.323873667E1,-1.727407837E-1,3.549269257E0,8.925189972E0,9.606568985E0
1.324874267E1,-1.892065430E-1,3.541635132E0,8.924740906E0,9.603644035E0
1.325874767E1,-2.350112915E-1,3.517535248E0,8.881780243E0,9.555851862E0
1.326875367E1,-2.785707092E-1,3.541635132E0,8.822503510E0,9.510906856E0
1.327875917E1,-2.839595032E-1,3.609743500E0,8.758137360E0,9.477122514E0
1.328876517E1,-2.489323425E-1,3.688180389E0,8.715176697E0,9.466728408E0
1.329877017E1,-2.109114075E-1,3.774550781E0,8.743767242E0,9.526026601E0
1.330877617E1,-1.694476318E-1,3.820654907E0,8.775501251E0,9.572645331E0
1.331878117E1,-1.327738953E-1,3.861968994E0,8.772956543E0,9.586302724E0
1.332878717E1,-1.248403931E-1,3.890110474E0,8.799601135E0,9.621929368E0
1.333879217E1,-9.475296021E-2,3.857328644E0,8.861422577E0,9.665028323E0
1.334879817E1,-1.272354126E-2,3.784729614E0,9.000034332E0,9.763450114E0
1.335880317E1,1.288819885E-1,3.808979187E0,9.174122314E0,9.934256553E0
1.336880917E1,1.748364258E-1,3.698658600E0,9.280251617E0,9.991682206E0
1.337881417E1,1.442999268E-1,3.714675293E0,9.205856323E0,9.928112894E0
1.338882017E1,-1.046324158E-1,3.946842499E0,8.947044525E0,9.779474392E0
1.339882517E1,-4.492158508E-1,4.295317841E0,8.745264130E0,9.753522181E0
1.340883117E1,-7.038363647E-1,4.562212830E0,8.734486542E0,9.879292823E0
1.341883617E1,-7.694000244E-1,4.554578705E0,9.133706360E0,1.023527017E1
1.342884217E1,-8.452922058E-1,4.350702667E0,9.914782104E0,1.086029635E1
1.343884717E1,-6.324348450E-1,3.888613586E0,1.078372513E1,1.148085437E1
1.344885317E1,-3.112028503E-1,3.228186951E0,1.161823975E1,1.206240163E1
1.345885817E1,3.293151855E-3,2.512824554E0,1.208721451E1,1.234564914E1
1.346886417E1,3.472778320E-1,1.967358856E0,1.204949295E1,1.221398310E1
1.347886917E1,5.445675659E-1,1.791324921E0,1.158590698E1,1.173621061E1
1.348887517E1,4.888833618E-1,2.029329987E0,1.069870193E1,1.090043165E1
1.349888017E1,6.346801758E-2,2.630030823E0,9.620344391E0,9.973570901E0
1.350888617E1,-3.064128113E-1,3.246748352E0,8.588689728E0,9.186993791E0
1.351889117E1,-5.794450378E-1,3.657793579E0,7.855065308E0,8.684311222E0
1.352889717E1,-9.348060608E-1,3.986959076E0,7.388485565E0,8.447450739E0
1.353890217E1,-1.139729919E0,4.109254761E0,7.220834198E0,8.386024415E0
1.354890817E1,-1.186283112E0,3.910468140E0,7.385342102E0,8.440515781E0
1.355891317E1,-1.138682098E0,3.608995056E0,7.733069000E0,8.609401745E0
1.356891917E1,-1.052311707E0,3.316203918E0,8.176596680E0,8.886017197E0
1.357892417E1,-1.050665131E0,3.126398621E0,8.569828949E0,9.182604955E0
1.358893017E1,-1.046024780E0,3.023861847E0,8.865763550E0,9.425479915E0
1.359893517E1,-1.064735870E0,2.948718109E0,9.084608459E0,9.610344001E0
1.360894117E1,-9.512718201E-1,2.970572662E0,9.365574188E0,9.871332225E0
1.361894617E1,-8.921447754E-1,2.980452118E0,9.559121704E0,1.005265263E1
1.362895217E1,-8.433462524E-1,2.903961182E0,9.710307312E0,1.017026507E1
1.363895717E1,-7.306306458E-1,2.804418182E0,9.865235138E0,1.028209350E1
1.364896217E1,-6.056405640E-1,2.656525726E0,9.986632690E0,1.035165503E1
1.365896817E1,-5.337899780E-1,2.556982727E0,9.980046387E0,1.031622112E1
1.366897317E1,-5.114863586E-1,2.471510468E0,9.836494904E0,1.015512749E1
1.367897917E1,-5.712121582E-1,2.460882568E0,9.592202911E0,9.919303556E0
1.368898417E1,-6.917115784E-1,2.559826813E0,9.212442627E0,9.586463236E0
1.369899017E1,-8.396040344E-1,2.749931488E0,8.851842499E0,9.307103403E0
1.370899517E1,-9.889933777E-1,3.015628967E0,8.503965912E0,9.076869626E0
1.371900117E1,-1.022373962E0,3.234773254E0,8.295299835E0,8.962198719E0
1.372900617E1,-1.010997620E0,3.429069214E0,8.216713257E0,8.960748217E0
1.373901217E1,-9.419911194E-1,3.588338013E0,8.207731934E0,9.007240446E0
1.374901717E1,-8.643026733E-1,3.658092957E0,8.308023376E0,9.118767220E0
1.375902317E1,-8.301736450E-1,3.641776886E0,8.329877930E0,9.128997398E0
1.376902817E1,-7.551795959E-1,3.684288483E0,8.432115326E0,9.232813586E0
1.377903417E1,-7.200027466E-1,3.688180389E0,8.610693970E0,9.394952325E0
1.378903917E1,-6.963519287E-1,3.643573151E0,8.759933624E0,9.512989457E0
1.379904517E1,-6.830296326E-1,3.627706146E0,8.934620361E0,9.667172408E0
1.380905017E1,-6.649172974E-1,3.591780853E0,9.129814453E0,9.833438700E0
1.381905617E1,-6.508465576E-1,3.543281708E0,9.292526093E0,9.966417997E0
1.382906117E1,-6.310876465E-1,3.500919800E0,9.421258392E0,1.007049258E1
1.383906717E1,-5.754034424E-1,3.457061005E0,9.552385712E0,1.017499055E1
1.384907217E1,-5.445675659E-1,3.411855011E0,9.654473419E0,1.025408043E1
1.385907817E1,-5.028044128E-1,3.385809174E0,9.764494629E0,1.034707067E1
1.386908317E1,-4.822970581E-1,3.315605164E0,9.859247589E0,1.041300202E1
1.387908917E1,-4.927752686E-1,3.227737885E0,9.923613739E0,1.044697224E1
1.388909417E1,-5.057981873E-1,3.160827026E0,9.980944519E0,1.048169418E1
1.389910017E1,-5.146298218E-1,3.097508698E0,1.000040405E1,1.048176918E1
1.390910517E1,-5.186714172E-1,3.073109436E0,9.942025452E0,1.041906386E1
1.391911117E1,-4.742138672E-1,3.071013794E0,9.849517822E0,1.032806883E1
1.392911617E1,-4.309538269E-1,3.071163483E0,9.733958130E0,1.021605145E1
1.393912217E1,-4.263134766E-1,3.107388153E0,9.603130188E0,1.010236179E1
1.394912717E1,-3.282673645E-1,3.129841461E0,9.509275360E0,1.001648566E1
1.395913317E1,-1.649569702E-1,3.200644226E0,9.444609833E0,9.973564516E0
1.396913817E1,-1.347198486E-2,3.306174774E0,9.402098236E0,9.966464989E0
1.397914417E1,9.071136475E-2,3.426823883E0,9.307345276E0,9.918569784E0
1.398914917E1,-3.158432007E-2,3.674558716E0,8.983568573E0,9.706074574E0
1.399915517E1,-3.179388428E-1,3.931125183E0,8.671168213E0,9.525963914E0
1.400916017E1,-5.908213806E-1,4.037254486E0,8.619226227E0,9.536223280E0
1.401916617E1,-7.277865601E-1,4.057911530E0,8.674161987E0,9.604030687E0
1.402917117E1,-8.919950867E-1,3.939358063E0,9.087901611E0,9.945056706E0
1.403917717E1,-9.803114319E-1,3.751498718E0,9.538913727E0,1.029687468E1
1.404918217E1,-8.575666809E-1,3.379372559E0,1.025098297E1,1.082766048E1
1.405918817E1,-4.483177185E-1,2.795287170E0,1.100945572E1,1.136761780E1
1.406919317E1,-5.343887329E-2,2.246228943E0,1.172197403E1,1.193537077E1
1.407919917E1,3.118016052E-1,1.788331146E0,1.219394257E1,1.232832445E1
1.408920417E1,6.301895142E-1,1.377585297E0,1.217597992E1,1.226985603E1
1.409921017E1,7.744894409E-1,1.271905060E0,1.174577454E1,1.183979712E1
1.410921517E1,8.101153564E-1,1.625469818E0,1.100616257E1,1.115500128E1
1.411922117E1,5.602848816E-1,2.264790344E0,1.013677048E1,1.040179360E1
1.412922617E1,4.155358887E-1,2.824177094E0,9.355245667E0,9.781066803E0
1.413923217E1,3.942800903E-1,3.266058197E0,8.793314209E0,9.388555145E0
1.414923717E1,2.790197754E-1,3.707041168E0,8.447084198E0,9.228934809E0
1.415924317E1,2.279759216E-1,3.770658875E0,8.268355865E0,9.090409787E0
1.416924817E1,2.056723022E-1,3.673660583E0,8.083490295E0,8.881491909E0
1.417925417E1,1.695973206E-1,3.548820190E0,8.098459167E0,8.843524687E0
1.418925917E1,1.393601990E-1,3.273991699E0,8.172405396E0,8.804922081E0
1.419926517E1,1.737886047E-1,2.962788849E0,8.322094116E0,8.835472298E0
1.420927017E1,1.948947144E-1,2.719095612E0,8.645721130E0,9.065316253E0
1.421927617E1,2.222877502E-1,2.523153076E0,9.008865967E0,9.358171792E0
1.422928117E1,3.243754578E-1,2.418221283E0,9.359736328E0,9.672521788E0
1.423928717E1,4.011657715E-1,2.355801086E0,9.697284393E0,9.987394923E0
1.424929217E1,5.218148804E-1,2.235900421E0,1.003513184E1,1.029443599E1
1.425929817E1,6.445596313E-1,2.142045593E0,1.020068756E1,1.044307633E1
1.426930317E1,7.000941467E-1,2.091301117E0,1.025382706E1,1.048830975E1
1.427930900E1,6.911128235E-1,2.062261505E0,1.014650024E1,1.037699507E1
1.428931400E1,5.245092773E-1,2.111958160E0,9.851463776E0,1.008894523E1
1.429932000E1,3.191363525E-1,2.285746765E0,9.435029755E0,9.713200953E0
1.430932500E1,8.068222046E-2,2.510130157E0,9.004375305E0,9.348049939E0
1.431933100E1,-1.058299255E-1,2.770887909E0,8.661737823E0,9.094763433E0
1.432933600E1,-2.121089172E-1,2.942730560E0,8.431516571E0,8.932811709E0
1.433934200E1,-2.311193848E-1,3.035537567E0,8.305478668E0,8.845839723E0
1.434934700E1,-1.787283325E-1,3.119812317E0,8.305778046E0,8.874182872E0
1.435935300E1,-1.299298096E-1,3.187321930E0,8.324489136E0,8.914764282E0
1.436935800E1,-5.478607178E-2,3.228636017E0,8.368796997E0,8.970164727E0
1.437936400E1,2.065704346E-2,3.258124695E0,8.445437622E0,9.052138966E0
1.438936900E1,1.338217163E-1,3.258274384E0,8.623866577E0,9.219833781E0
1.439937500E1,2.236349487E-1,3.239413605E0,8.836274872E0,9.414009066E0
1.440938000E1,2.938389587E-1,3.226091309E0,8.993298340E0,9.558944581E0
1.441938600E1,3.547622681E-1,3.220103760E0,9.136700134E0,9.694029804E0
1.442939100E1,3.854484558E-1,3.207230530E0,9.168284454E0,9.720716950E0
1.443939700E1,4.224215698E-1,3.209775238E0,9.171577606E0,9.726198273E0
1.444940200E1,4.429289246E-1,3.263663177E0,9.123377838E0,9.699675590E0
1.445940800E1,4.037104797E-1,3.320395203E0,8.975186005E0,9.578202873E0
1.446941300E1,3.312611389E-1,3.380570068E0,8.844956818E0,9.474769076E0
1.447941900E1,2.243833923E-1,3.482208710E0,8.723409576E0,9.395424421E0
1.448942400E1,1.782792664E-1,3.520678711E0,8.677604828E0,9.366311314E0
1.449943000E1,1.387614441E-1,3.515140228E0,8.688232727E0,9.373412051E0
1.450943500E1,9.729766846E-2,3.531905365E0,8.687035217E0,9.378080998E0
1.451944100E1,1.136137390E-1,3.554358673E0,8.766669617E0,9.460489936E0
1.452944600E1,1.417552185E-1,3.545676727E0,8.895551605E0,9.577199818E0
1.453945200E1,1.541793823E-1,3.558100891E0,9.018595734E0,9.696335506E0
1.454945700E1,1.995350647E-1,3.575464783E0,9.149423676E0,9.825259093E0
1.455946300E1,2.011816406E-1,3.589984589E0,9.319619751E0,9.989182935E0
1.456946800E1,2.415975952E-1,3.608695679E0,9.523046722E0,1.018673023E1
1.457947400E1,2.875520325E-1,3.572471008E0,9.718540192E0,1.035834247E1
1.458947900E1,3.219804382E-1,3.567531281E0,9.816735992E0,1.044984480E1
1.459948500E1,2.986289978E-1,3.587589569E0,9.809251556E0,1.044899011E1
1.460949000E1,1.718426514E-1,3.624862061E0,9.651479645E0,1.031116939E1
1.461949600E1,-1.315763855E-1,3.758683777E0,9.335486755E0,1.006460774E1
1.462950100E1,-5.725593567E-1,3.914210358E0,9.136251068E0,9.955900287E0
1.463950700E1,-8.668473816E-1,4.005071411E0,9.175319824E0,1.004880666E1
1.464951200E1,-9.059161377E-1,3.925736389E0,9.572593689E0,1.038588659E1
1.465951800E1,-7.786807251E-1,3.705693970E0,1.044842239E1,1.111341721E1
1.466952300E1,-5.706134033E-1,3.371738434E0,1.128937363E1,1.179593899E1
1.467952900E1,-7.035369873E-3,2.852168884E0,1.208586731E1,1.241785430E1
1.468953400E1,3.978726196E-1,2.294728088E0,1.247266296E1,1.268823869E1
1.469954000E1,7.131170654E-1,1.799857178E0,1.229977249E1,1.245120176E1
1.470954500E1,9.334588623E-1,1.676363983E0,1.178005325E1,1.193529205E1
1.471955100E1,7.899073792E-1,1.937870178E0,1.080557968E1,1.100635483E1
1.472955600E1,3.171903992E-1,2.527643738E0,9.602830811E0,9.934986270E0
1.473956200E1,-1.504371643E-1,3.094215546E0,8.592132568E0,9.133539470E0
1.474956700E1,-5.095404053E-1,3.544928284E0,7.807913361E0,8.590090745E0
1.475957300E1,-9.021739197E-1,3.936813354E0,7.423662415E0,8.451223628E0
1.476957800E1,-1.137634277E0,4.105662231E0,7.354356537E0,8.499249036E0
1.477958400E1,-1.237776031E0,4.024980011E0,7.481292572E0,8.585003910E0
1.478958900E1,-1.245410156E0,3.770958252E0,7.730524292E0,8.690925061E0
1.479959500E1,-1.136436768E0,3.504662018E0,8.038433990E0,8.842542926E0
1.480960000E1,-1.081650696E0,3.265309753E0,8.295898590E0,8.980765526E0
1.481960600E1,-1.044527893E0,3.096460876E0,8.491392059E0,9.098507987E0
1.482961100E1,-9.193881226E-1,3.009491730E0,8.713380432E0,9.264195245E0
1.483961700E1,-7.476951599E-1,2.898722076E0,8.967252502E0,9.453742919E0
1.484962200E1,-5.798941040E-1,2.760409698E0,9.263037415E0,9.682974802E0
1.485962800E1,-4.034111023E-1,2.646646271E0,9.615404663E0,9.981156438E0
1.486963300E1,-2.239343262E-1,2.434088287E0,9.958790588E0,1.025438649E1
1.487963900E1,-7.858657837E-2,2.340832214E0,1.015862503E1,1.042512992E1
1.488964400E1,-1.377136230E-2,2.254910889E0,1.024649231E1,1.049168325E1
1.489965000E1,-1.137634277E-2,2.189945984E0,1.010503647E1,1.033962063E1
1.490965500E1,-1.368154907E-1,2.219734039E0,9.863139496E0,1.011075954E1
1.491966100E1,-3.210823059E-1,2.360740814E0,9.479636993E0,9.774441599E0
1.492966600E1,-5.394781494E-1,2.558928680E0,9.040599976E0,9.411248620E0
1.493967200E1,-6.982978821E-1,2.787952423E0,8.669521637E0,9.133504479E0
1.494967700E1,-7.402107239E-1,2.940934296E0,8.404572601E0,8.934978850E0
1.495968300E1,-7.834707642E-1,3.041225739E0,8.249195709E0,8.826783688E0
1.496968800E1,-7.846682739E-1,3.109184418E0,8.212521973E0,8.816362583E0
1.497969400E1,-7.195536804E-1,3.150498505E0,8.295150146E0,8.902410588E0
1.498969900E1,-6.616241455E-1,3.154540100E0,8.452922058E0,9.046588367E0
1.499970500E1,-6.357279968E-1,3.212769012E0,8.594228210E0,9.197107879E0
1.500971000E1,-5.981561279E-1,3.213367767E0,8.840166779E0,9.425076755E0
1.501971600E1,-6.090834045E-1,3.207380219E0,8.985215149E0,9.559935237E0
1.502972100E1,-6.069877625E-1,3.208727417E0,9.186995544E0,9.750141174E0
1.503972700E1,-5.894741821E-1,3.199895782E0,9.411079559E0,9.957671982E0
1.504973200E1,-5.557942200E-1,3.167113953E0,9.578581238E0,1.010389710E1
1.505973800E1,-5.306465149E-1,3.138074341E0,9.741143188E0,1.024787621E1
1.506974300E1,-5.492079163E-1,3.108735352E0,9.831704865E0,1.032609730E1
1.507974900E1,-5.903723145E-1,3.077151031E0,9.861492920E0,1.034729146E1
1.508975400E1,-6.128256226E-1,3.062481537E0,9.880054321E0,1.036194102E1
1.509976000E1,-7.012916565E-1,3.079845428E0,9.846524048E0,1.034075885E1
1.510976500E1,-7.637118530E-1,3.101101227E0,9.790989532E0,1.029871646E1
1.511977100E1,-7.747888184E-1,3.127296753E0,9.811496887E0,1.032694310E1
1.512977600E1,-7.433541870E-1,3.078348541E0,9.887089691E0,1.038187593E1
1.513978200E1,-6.667135620E-1,3.008443909E0,1.001552261E1,1.047883271E1
1.514978700E1,-5.659730530E-1,2.915636902E0,1.020577698E1,1.062916496E1
1.515979300E1,-4.264631653E-1,2.830164642E0,1.035816010E1,1.074631022E1
1.516979800E1,-3.067121887E-1,2.814896393E0,1.039932449E1,1.077792485E1
1.517980400E1,-2.228865051E-1,2.855162659E0,1.030996033E1,1.070032309E1
1.518980900E1,-1.896556091E-1,2.980601807E0,1.010788055E1,1.053988642E1
1.519981500E1,-1.604663086E-1,3.124302979E0,9.828112335E0,1.031401040E1
1.520982000E1,-1.959425354E-1,3.280727692E0,9.479786682E0,1.003334058E1
1.521982600E1,-3.646417236E-1,3.480262756E0,9.048683167E0,9.701745177E0
1.522983100E1,-6.298901367E-1,3.644620972E0,8.751551056E0,9.501035180E0
1.523983700E1,-7.967930603E-1,3.622766418E0,8.726253662E0,9.481920622E0
1.524984200E1,-8.310717773E-1,3.454366608E0,8.843010864E0,9.530066637E0
1.525984800E1,-8.743318176E-1,3.247945862E0,9.056017914E0,9.660490096E0
1.526985300E1,-7.896080017E-1,3.003504181E0,9.388775940E0,9.889066276E0
1.527985892E1,-5.414241028E-1,2.637964325E0,9.882149963E0,1.024250378E1
1.528986392E1,-3.165916443E-1,2.351160736E0,1.040052200E1,1.066766352E1
1.529986992E1,2.350112915E-2,2.099533997E0,1.093700638E1,1.113672770E1
1.530987592E1,4.334985352E-1,1.851050720E0,1.145328278E1,1.160999553E1
1.531988092E1,7.743397522E-1,1.669029236E0,1.159204422E1,1.173715254E1
1.532988692E1,1.115929413E0,1.631457367E0,1.137918686E1,1.154958203E1
1.533989192E1,1.315614166E0,1.784888306E0,1.079420334E1,1.101959585E1
1.534989792E1,1.143472137E0,2.171085205E0,9.991273041E0,1.028818140E1
1.535990292E1,8.705895996E-1,2.551144867E0,9.138197021E0,9.527481891E0
1.536990892E1,7.243437195E-1,2.805166626E0,8.491691437E0,8.972316149E0
1.537991392E1,4.330494690E-1,3.051105194E0,8.009993134E0,8.582351936E0
1.538991992E1,2.718347168E-1,3.241658936E0,7.769143982E0,8.422698201E0
1.539992492E1,1.704954529E-1,3.244652710E0,7.785310364E0,8.436106766E0
1.540993092E1,1.609153748E-1,3.196452942E0,7.852969666E0,8.480114252E0
1.541993592E1,2.305206299E-1,3.114423523E0,8.103548584E0,8.684484630E0
1.542994192E1,3.125500488E-1,3.003204803E0,8.390501862E0,8.917255638E0
1.543994692E1,3.884422302E-1,2.923869781E0,8.694220276E0,9.180924140E0
1.544995292E1,4.534071350E-1,2.847827911E0,9.034163361E0,9.483238343E0
1.545995792E1,5.272036743E-1,2.746488647E0,9.286089478E0,9.698072045E0
1.546996392E1,5.852828979E-1,2.651885376E0,9.443112946E0,9.825855394E0
1.547996892E1,6.156697083E-1,2.608924713E0,9.495503998E0,9.866617126E0
1.548997492E1,6.533912659E-1,2.556383972E0,9.475894775E0,9.836391663E0
1.549997992E1,6.174659729E-1,2.542313232E0,9.433981934E0,9.790027371E0
1.550998592E1,5.477110291E-1,2.545007629E0,9.441466370E0,9.793790809E0
1.551999092E1,4.342469788E-1,2.517315216E0,9.424701233E0,9.764754972E0
1.552999692E1,3.350033569E-1,2.486030273E0,9.358838196E0,9.689191202E0
1.554000192E1,1.637594604E-1,2.530038757E0,9.302405548E0,9.641714695E0
1.555000792E1,1.122665405E-2,2.618055725E0,9.228609009E0,9.592787189E0
1.556001292E1,-1.050814819E-1,2.700833588E0,9.158554688E0,9.549066350E0
1.557001892E1,-1.872605896E-1,2.810555420E0,9.160500641E0,9.583791540E0
1.558002392E1,-2.398013306E-1,2.933150482E0,9.147028656E0,9.608798555E0
1.559002992E1,-2.055226135E-1,2.954555969E0,9.205556946E0,9.670259521E0
1.560003492E1,-8.397537231E-2,2.965183868E0,9.337283020E0,9.797153741E0
1.561004092E1,-1.706451416E-2,2.979703674E0,9.435778198E0,9.895091480E0
1.562004592E1,1.134640503E-1,2.956651611E0,9.467063141E0,9.918666612E0
1.563005192E1,2.061213684E-1,2.981200562E0,9.459429016E0,9.920223794E0
1.564005692E1,2.487826538E-1,3.076103210E0,9.387578430E0,9.881848640E0
1.565006292E1,2.888992310E-1,3.164569244E0,9.295370178E0,9.823536431E0
1.566006792E1,3.329077148E-1,3.241808624E0,9.194330292E0,9.754786529E0
1.567007392E1,3.626957703E-1,3.333717499E0,9.104067993E0,9.702024253E0
1.568007892E1,3.547622681E-1,3.416794739E0,9.005872192E0,9.638779824E0
1.569008492E1,3.112028503E-1,3.486699371E0,8.910071411E0,9.573050312E0
1.570008992E1,1.974394226E-1,3.538791046E0,8.836574249E0,9.520875425E0
1.571009592E1,1.185534668E-1,3.554658051E0,8.846004639E0,9.534225026E0
1.572010092E1,1.007405090E-1,3.492986298E0,8.913813629E0,9.574297642E0
1.573010692E1,5.807922363E-2,3.449875946E0,9.009614410E0,9.647702787E0
1.574011192E1,1.242416382E-2,3.427422638E0,9.081165619E0,9.706438549E0
1.575011792E1,2.365081787E-2,3.417692871E0,9.147178345E0,9.764837715E0
1.576012292E1,5.194198608E-2,3.464844818E0,9.182355194E0,9.814453347E0
1.577012892E1,7.858657837E-2,3.505859528E0,9.181307373E0,9.828205938E0
1.578013392E1,8.981323242E-2,3.531905365E0,9.194929047E0,9.850337156E0
1.579013992E1,9.116043091E-2,3.586990814E0,9.188941498E0,9.864657073E0
1.580014492E1,1.508862305E-1,3.605552216E0,9.269024963E0,9.946738018E0
1.581015092E1,2.038760376E-1,3.619173889E0,9.424551544E0,1.009763125E1
1.582015592E1,2.838098145E-1,3.625161438E0,9.576335907E0,1.024346391E1
1.583016192E1,4.382885742E-1,3.628753967E0,9.755962372E0,1.041819341E1
1.584016692E1,4.945715332E-1,3.645369415E0,9.900112610E0,1.056151262E1
1.585017292E1,4.870870972E-1,3.685785370E0,9.859846344E0,1.053749674E1
1.586017892E1,4.158352661E-1,3.740870819E0,9.667646027E0,1.037450785E1
1.587018392E1,2.148033142E-1,3.921096039E0,9.303153992E0,1.009801014E1
1.588018992E1,-8.666976929E-2,4.163591766E0,8.892408142E0,9.819263242E0
1.589019492E1,-4.513114929E-1,4.374652863E0,8.702902222E0,9.750988504E0
1.590020092E1,-6.649172974E-1,4.472249908E0,8.842112732E0,9.931067003E0
1.591020592E1,-7.243437195E-1,4.400549011E0,9.346713409E0,1.035618448E1
1.592021192E1,-8.499325562E-1,4.305346985E0,1.007449997E1,1.098881011E1
1.593021692E1,-5.402265930E-1,3.836072845E0,1.100436630E1,1.166633522E1
1.594022292E1,-3.517684937E-2,3.090922394E0,1.177885574E1,1.217770427E1
1.595022792E1,3.396437073E-1,2.406695251E0,1.216056198E1,1.240108090E1
1.596023392E1,7.077282715E-1,1.856439514E0,1.218825439E1,1.234912111E1
1.597023892E1,8.536747742E-1,1.569336548E0,1.176882660E1,1.190364891E1
1.598024492E1,7.222480774E-1,1.657503204E0,1.091021210E1,1.105900932E1
1.599024992E1,2.565664673E-1,2.150278473E0,9.904303894E0,1.013828188E1
1.600025592E1,-1.014889526E-1,2.580483856E0,8.913813629E0,9.280370163E0
1.601026092E1,-3.971241760E-1,2.871478729E0,8.175848236E0,8.674536995E0
1.602026692E1,-7.605683899E-1,3.246299286E0,7.749534760E0,8.436362505E0
1.603027192E1,-9.355545044E-1,3.389701080E0,7.682025146E0,8.448600239E0
1.604027792E1,-9.669891357E-1,3.350931702E0,7.720944214E0,8.472118437E0
1.605028292E1,-9.719288635E-1,3.294499054E0,7.866142273E0,8.583388841E0
1.606028892E1,-9.524693298E-1,3.134930878E0,8.111482086E0,8.748207306E0
1.607029392E1,-9.226812744E-1,2.935695190E0,8.292904816E0,8.845446132E0
1.608029992E1,-9.087602234E-1,2.841391296E0,8.408314819E0,8.921833205E0
1.609030492E1,-8.672964478E-1,2.785258026E0,8.569080505E0,9.052016687E0
1.610031092E1,-7.529342651E-1,2.742297363E0,8.747359772E0,9.198011079E0
1.611031592E1,-6.237528992E-1,2.711012421E0,8.911268921E0,9.335382681E0
1.612032192E1,-5.197192383E-1,2.681224365E0,9.062155151E0,9.464762447E0
1.613032692E1,-4.245172119E-1,2.633024597E0,9.219477997E0,9.597489668E0
1.614033292E1,-3.462300110E-1,2.674039307E0,9.363478546E0,9.743977213E0
1.615033792E1,-3.415896606E-1,2.635120239E0,9.436376953E0,9.803354129E0
1.616034392E1,-3.900888062E-1,2.591261444E0,9.394613800E0,9.753234007E0
1.617034892E1,-4.574487305E-1,2.573298798E0,9.347461853E0,9.705986253E0
1.618035492E1,-5.557942200E-1,2.544408875E0,9.292975159E0,9.651026424E0
1.619035992E1,-6.430627441E-1,2.562521210E0,9.199569397E0,9.571422137E0
1.620036592E1,-6.923103333E-1,2.632874908E0,9.121431885E0,9.519025345E0
1.621037092E1,-7.060816956E-1,2.717149658E0,9.014254761E0,9.441305128E0
1.622037692E1,-6.905140686E-1,2.830014954E0,8.904832306E0,9.369195948E0
1.623038192E1,-6.245013428E-1,2.926564178E0,8.814570007E0,9.308674676E0
1.624038792E1,-6.026467896E-1,3.060236206E0,8.700806580E0,9.242957531E0
1.625039292E1,-6.120771790E-1,3.202141113E0,8.658294983E0,9.251725147E0
1.626039892E1,-6.177653503E-1,3.328777771E0,8.644373932E0,9.283727492E0
1.627040492E1,-5.899232483E-1,3.434008942E0,8.627010040E0,9.304070565E0
1.628040979E1,-6.035449219E-1,3.493884430E0,8.735983429E0,9.428091077E0
1.629041579E1,-5.812413025E-1,3.522624664E0,8.857830048E0,9.550281626E0
1.630042079E1,-5.239105225E-1,3.518732758E0,9.064101105E0,9.737242489E0
1.631042679E1,-4.198768616E-1,3.462150421E0,9.257798309E0,9.892907139E0
1.632043179E1,-3.435356140E-1,3.418291626E0,9.466165009E0,1.007030359E1
1.633043779E1,-3.062631226E-1,3.372786255E0,9.593400421E0,1.017363337E1
1.634044279E1,-2.830613708E-1,3.330124969E0,9.660161591E0,1.022196547E1
1.635044879E1,-2.707868958E-1,3.330424347E0,9.650731201E0,1.021281864E1
1.636045379E1,-2.962339783E-1,3.319347382E0,9.640402679E0,1.020015615E1
1.637045979E1,-2.969824219E-1,3.306923218E0,9.669292603E0,1.022346121E1
1.638046479E1,-3.216810608E-1,3.313958588E0,9.688303070E0,1.024446273E1
1.639047079E1,-3.406915283E-1,3.290307770E0,9.748777313E0,1.029470034E1
1.640047579E1,-3.713777161E-1,3.254831543E0,9.770332489E0,1.030491372E1
1.641048179E1,-3.755690002E-1,3.248694305E0,9.773176575E0,1.030582588E1
1.642048679E1,-3.065625000E-1,3.245850220E0,9.858499146E0,1.038361833E1
1.643049279E1,-2.366578674E-1,3.259322205E0,9.889335022E0,1.041528374E1
1.644049779E1,-1.225950623E-1,3.275787964E0,9.933493195E0,1.046040646E1
1.645050379E1,-3.218307495E-2,3.359763336E0,9.929451599E0,1.048251184E1
1.646050879E1,1.362167358E-2,3.406615906E0,9.862091675E0,1.043389044E1
1.647051479E1,3.053649902E-2,3.492686920E0,9.673334198E0,1.028460932E1
1.648051979E1,2.305206299E-2,3.647465057E0,9.372310181E0,1.005707367E1
1.649052579E1,-1.222956848E-1,3.836521912E0,8.970994720E0,9.757694548E0
1.650053079E1,-2.929408264E-1,3.925886078E0,8.738228760E0,9.584103384E0
1.651053679E1,-3.698808289E-1,3.898343353E0,8.754245453E0,9.590135879E0
1.652054179E1,-3.616479492E-1,3.864813080E0,9.031319275E0,9.830172797E0
1.653054779E1,-3.318598938E-1,3.801494751E0,9.450896759E0,1.019220010E1
1.654055279E1,-2.386038208E-1,3.557202759E0,9.972711639E0,1.059082625E1
1.655055879E1,-6.137237549E-3,3.178939362E0,1.063688049E1,1.110175300E1
1.656056379E1,1.971400452E-1,2.742746429E0,1.126198059E1,1.159283093E1
1.657056979E1,3.561094666E-1,2.409539337E0,1.171987839E1,1.197030673E1
1.658057479E1,6.059399414E-1,2.039957886E0,1.197509766E1,1.216271167E1
1.659058079E1,8.083190918E-1,1.719174957E0,1.179337555E1,1.194540285E1
1.660058579E1,9.086105347E-1,1.707199860E0,1.124282043E1,1.140794091E1
1.661059179E1,8.496331787E-1,2.008373566E0,1.050275940E1,1.072676074E1
1.662059679E1,6.092330933E-1,2.498753815E0,9.571545868E0,9.911075920E0
1.663060279E1,4.159849548E-1,2.927162933E0,8.748557281E0,9.234640265E0
1.664060879E1,2.582130432E-1,3.267255707E0,8.150850220E0,8.785100633E0
1.665061379E1,1.213975525E-1,3.530857544E0,7.785759430E0,8.549838727E0
1.666061979E1,8.352630615E-2,3.604654083E0,7.651189270E0,8.458203411E0
1.667062479E1,1.287322998E-1,3.536545715E0,7.686515808E0,8.462047794E0
1.668063079E1,2.157014465E-1,3.315904541E0,7.919581146E0,8.588452455E0
1.669063579E1,3.101550293E-1,3.057092743E0,8.192463684E0,8.749769905E0
