"Time (s)","Acceleration x (m/s^2)","Acceleration y (m/s^2)","Acceleration z (m/s^2)","Absolute acceleration (m/s^2)"
4.654999997E-3,-5.453459473E0,-4.028572540E0,5.390739899E0,8.661968228E0
1.466000004E-2,-5.541476440E0,-4.474195862E0,5.339396667E0,8.901435082E0
2.466500003E-2,-5.935307465E0,-4.643493805E0,5.581742706E0,9.377940129E0
3.467000002E-2,-6.179599457E0,-3.944297791E0,5.738167419E0,9.309752942E0
4.467400000E-2,-6.174060974E0,-3.292104034E0,5.308560791E0,8.782812508E0
5.467900005E-2,-6.561904449E0,-3.043920135E0,5.200335846E0,8.908845756E0
6.468400004E-2,-7.166197815E0,-3.126099243E0,5.036127319E0,9.299971289E0
7.468900003E-2,-8.014483795E0,-3.558400269E0,5.042114868E0,1.011519082E1
8.469400002E-2,-8.741970978E0,-3.837719421E0,5.336402893E0,1.093742853E1
9.469900001E-2,-8.859476624E0,-3.782334595E0,5.268743591E0,1.097980146E1
1.047040000E-1,-8.775351563E0,-3.718866577E0,5.113067322E0,1.081573951E1
1.147080000E-1,-8.659193115E0,-3.908522186E0,5.098098450E0,1.078187270E1
1.247130000E-1,-8.383167114E0,-4.088448029E0,5.044060822E0,1.060355826E1
1.347180000E-1,-8.003257141E0,-3.920497284E0,4.955445099E0,1.019700250E1
1.447230000E-1,-7.355853424E0,-3.550317078E0,5.123844910E0,9.641945738E0
1.547273750E-1,-6.541696472E0,-2.960842896E0,5.175936584E0,8.851593241E0
1.647323750E-1,-6.035000153E0,-2.631677399E0,5.154980164E0,8.361864222E0
1.747373750E-1,-6.042035522E0,-2.527793427E0,5.601651306E0,8.618261438E0
1.847413750E-1,-6.128256226E0,-2.442470856E0,5.685626678E0,8.709049258E0
1.947463750E-1,-6.606511688E0,-2.291884003E0,5.608237610E0,8.963875170E0
2.047513750E-1,-7.356901245E0,-2.051483917E0,5.701343994E0,9.530892169E0
2.147563750E-1,-8.247249756E0,-1.755549316E0,5.671855316E0,1.016213682E1
2.247613751E-1,-8.837622070E0,-2.001936951E0,5.754333801E0,1.073422903E1
2.347663750E-1,-9.081614685E0,-2.478246460E0,5.971981201E0,1.114818327E1
2.447703750E-1,-8.802744598E0,-2.480042725E0,6.249653778E0,1.107687215E1
2.547753750E-1,-7.885302429E0,-2.483036499E0,6.483168182E0,1.050594757E1
2.647803750E-1,-7.287595367E0,-3.219954071E0,5.922583923E0,9.927444323E0
2.747853750E-1,-6.974895630E0,-3.450325012E0,5.431604919E0,9.489796823E0
2.847903750E-1,-6.508166199E0,-3.564687195E0,4.715643768E0,8.792071327E0
2.947953750E-1,-6.670578461E0,-3.243754578E0,4.505181427E0,8.678434217E0
3.048003750E-1,-7.170239410E0,-2.293081512E0,4.944218445E0,9.006433926E0
3.148043750E-1,-7.877219238E0,-1.396446075E0,4.874762878E0,9.368241974E0
3.248093750E-1,-8.562943268E0,-1.187330933E0,4.661306763E0,9.821483233E0
3.348143750E-1,-8.408165131E0,-1.892963562E0,4.388873291E0,9.671750652E0
3.448193750E-1,-7.509434052E0,-2.820434875E0,3.776197357E0,8.866009200E0
3.548243750E-1,-6.671177216E0,-3.367846527E0,3.590283966E0,8.290786129E0
3.648293750E-1,-5.604495392E0,-2.984344025E0,3.384461975E0,7.195224855E0
3.748343750E-1,-4.513563995E0,-2.583178253E0,3.684887238E0,6.373653880E0
3.848393750E-1,-4.831053772E0,-2.320025482E0,5.065615997E0,7.374419585E0
3.948433750E-1,-5.999074860E0,-2.518961792E0,5.418881378E0,8.467487412E0
4.048483750E-1,-7.501799927E0,-3.604654083E0,4.534221039E0,9.477852796E0
4.148533750E-1,-9.123527527E0,-4.482129364E0,4.774621124E0,1.123054963E1
4.248583750E-1,-9.597142639E0,-4.256249084E0,5.073399811E0,1.166019677E1
4.348633750E-1,-1.015488281E1,-3.680845642E0,4.647984467E0,1.175899780E1
4.448683750E-1,-1.094014984E1,-3.282224579E0,3.900888062E0,1.206966464E1
4.548723750E-1,-1.167961212E1,-2.709814911E0,3.246898041E0,1.242170612E1
4.648773751E-1,-1.110525650E1,-3.437601471E0,4.392914886E0,1.242745054E1
4.748823750E-1,-9.706714783E0,-3.034789124E0,3.495680695E0,1.075407088E1
4.848873750E-1,-8.897048492E0,-3.087629242E0,2.426903229E0,9.725265317E0
4.948923750E-1,-7.740703125E0,-4.264781342E0,2.750230865E0,9.255842186E0
5.048973750E-1,-7.128176880E0,-5.412145386E0,1.931134186E0,9.155954486E0
5.149023750E-1,-8.614585876E0,-4.320465546E0,1.415157166E0,9.740645880E0
5.249073750E-1,-9.030271454E0,-4.646337891E0,1.220112762E0,1.022853526E1
5.349113750E-1,-8.929231567E0,-5.679339752E0,1.935026093E0,1.075780658E1
5.449163750E-1,-8.500972137E0,-5.625002747E0,2.564317474E0,1.051108497E1
5.549213750E-1,-7.861352234E0,-5.621559906E0,2.228865051E0,9.918197121E0
5.649263751E-1,-7.763455811E0,-6.606362000E0,2.992427216E0,1.062402398E1
5.749313750E-1,-5.942941589E0,-7.638615417E0,5.667813721E0,1.121566372E1
5.849363750E-1,-3.078797607E0,-6.156996460E0,4.555476837E0,8.254693776E0
5.949413750E-1,-2.223176880E0,-2.874173126E0,9.865983582E-1,3.765204233E0
6.049453750E-1,-1.838327179E0,-3.381468201E-1,-3.538641357E-1,1.902369553E0
6.149503750E-1,-8.128097534E-2,8.637039185E-2,-1.319805450E0,1.325123718E0
6.249553750E-1,-1.976938934E0,-7.047344971E-1,-7.812254333E-1,2.239475706E0
6.349603750E-1,-3.304677887E0,-1.093326416E0,-5.294490051E-1,3.520876998E0
6.449653750E-1,-3.716172180E0,-1.428778839E0,-6.173162842E-1,4.028948255E0
6.549703750E-1,-3.676504669E0,-1.920955353E0,7.204518127E-1,4.210202711E0
6.649753751E-1,-3.582051086E0,-3.741619263E0,3.447331238E0,6.222129648E0
6.749793750E-1,-4.270170135E0,-1.128009293E1,1.172107590E1,1.681839676E1
6.849843750E-1,-3.374732208E0,-2.035018158E1,1.885568939E1,2.794737430E1
6.949893750E-1,-7.602690125E-1,-2.073742630E1,1.417058212E1,2.512815664E1
7.049943750E-1,1.448238373E0,-2.043176193E1,9.824669495E0,2.271735946E1
7.149993750E-1,2.940634918E0,-2.116598511E1,6.247408447E0,2.226379059E1
7.250043750E-1,1.848056946E0,-2.089340195E1,3.452869720E0,2.125727802E1
7.350093750E-1,-5.403762817E-2,-1.911135773E1,9.101074219E-1,1.913309201E1
7.450133750E-1,-8.105644226E-1,-1.580009354E1,-1.847158813E0,1.592833846E1
7.550183750E-1,-1.378782806E0,-1.148621429E1,-3.217858429E0,1.200786300E1
7.650233750E-1,-1.041234741E0,-8.283624115E0,-3.482358398E0,9.045961435E0
7.750283750E-1,-2.692900085E-1,-6.321204987E0,-3.151696014E0,7.068474896E0
7.850333750E-1,7.354206848E-1,-5.147944794E0,-2.530637512E0,5.783278084E0
7.950383750E-1,1.753753052E0,-4.684508514E0,-1.812131653E0,5.320158918E0
8.050433750E-1,2.519710236E0,-4.838837585E0,-1.022373962E0,5.550543880E0
8.150473750E-1,2.430795135E0,-5.362748108E0,-2.809657288E-1,5.894639429E0
8.250523750E-1,1.982477417E0,-6.639892273E0,7.056326294E-1,6.965364564E0
8.350573750E-1,9.285191345E-1,-8.413553925E0,1.761985931E0,8.646076095E0
8.450623750E-1,-7.188052368E-1,-9.845326538E0,2.839145966E0,1.027170314E1
8.550673750E-1,-2.443668365E0,-1.069196594E1,3.945794678E0,1.165585460E1
8.650723750E-1,-3.733685760E0,-1.058314224E1,4.702321472E0,1.216779094E1
8.750773750E-1,-4.252506866E0,-9.975555725E0,4.752616882E0,1.183988572E1
8.850813750E-1,-4.178560638E0,-9.302106171E0,4.231849823E0,1.104074731E1
8.950863750E-1,-4.024530945E0,-8.900491333E0,3.600612488E0,1.041057182E1
9.050913751E-1,-4.023034058E0,-8.859626312E0,3.147504730E0,1.022665964E1
9.150963750E-1,-4.190386047E0,-9.070537720E0,3.146157532E0,1.047531847E1
9.251013750E-1,-4.663851471E0,-9.360185394E0,3.636238403E0,1.107189283E1
9.351063750E-1,-5.431754608E0,-9.533225555E0,4.439468079E0,1.183618285E1
9.451113750E-1,-6.380781097E0,-9.419611816E0,5.406906281E0,1.259674917E1
9.551153751E-1,-6.880292358E0,-8.893006897E0,5.922434235E0,1.270823441E1
9.651203750E-1,-6.456673279E0,-7.998916168E0,5.100942535E0,1.147566575E1
9.751253750E-1,-5.556295624E0,-7.672295380E0,3.427572327E0,1.007396593E1
9.851303750E-1,-4.275409241E0,-7.995623016E0,1.817670135E0,9.247325901E0
9.951353750E-1,-2.203268280E0,-8.252339172E0,6.007008362E-1,8.562495806E0
1.005140375E0,-2.142045593E-1,-8.306526489E0,-7.843688965E-2,8.309658131E0
1.015145375E0,9.262738037E-1,-8.753047943E0,-4.511618042E-1,8.813477091E0
1.025149375E0,1.099463654E0,-1.038121216E1,-6.855743408E-1,1.046175886E1
1.035154375E0,4.120930481E-1,-1.302770874E1,-6.822811890E-1,1.305206969E1
1.045159375E0,-4.249662781E-1,-1.549128571E1,-3.516188049E-1,1.550110206E1
1.055164375E0,-1.068777466E0,-1.841799957E1,-3.433859253E-1,1.845217893E1
1.065169375E0,-7.396119690E-1,-1.981519409E1,-5.257067871E-1,1.983596003E1
1.075174375E0,1.354233856E0,-1.704340805E1,3.427871704E-1,1.710056170E1
1.085179375E0,3.576063538E0,-1.109822113E1,1.714684296E0,1.178553711E1
1.095183375E0,3.873195648E0,-7.443720703E0,1.805395660E0,8.583127398E0
1.105188375E0,2.321372681E0,-5.756130066E0,1.063089294E0,6.296980491E0
1.115193375E0,5.081932068E-1,-5.260660400E0,4.161346436E-2,5.285313601E0
1.125198375E0,-5.821394348E-1,-5.243296509E0,-8.533753967E-1,5.344089648E0
1.135203375E0,-9.874964905E-1,-5.146298218E0,-1.408271484E0,5.426118616E0
1.145208375E0,-5.908213806E-1,-5.160219269E0,-1.741029510E0,5.477966462E0
1.155215750E0,8.083190918E-2,-5.516927490E0,-1.821262665E0,5.810337376E0
1.165220750E0,3.960763550E-1,-6.404731293E0,-1.874102783E0,6.685037072E0
1.175225750E0,3.333567810E-1,-7.930209045E0,-2.039658508E0,8.195092988E0
1.185230750E0,1.475930786E-1,-9.744885406E0,-2.049388275E0,9.959144923E0
1.195235750E0,-2.046244812E-1,-1.122231308E1,-1.759740601E0,1.136128818E1
1.205240750E0,-5.146298218E-1,-1.248149460E1,-1.402733002E0,1.257060902E1
1.215245750E0,-6.616241455E-1,-1.316991302E1,-9.602531433E-1,1.322143871E1
1.225250750E0,-7.117698669E-1,-1.310554688E1,-4.909790039E-1,1.313404110E1
1.235254750E0,-6.722520447E-1,-1.245290405E1,-1.456471252E-1,1.247188660E1
1.245259750E0,-6.625222778E-1,-1.132634674E1,-2.948867798E-2,1.134574527E1
1.255264750E0,-8.107141113E-1,-1.025876678E1,-3.367996216E-2,1.029080598E1
1.265269750E0,-1.135239258E0,-9.674681396E0,-6.451583862E-2,9.741272534E0
1.275274750E0,-1.450483704E0,-9.218879242E0,2.365081787E-2,9.332320012E0
1.285279750E0,-1.581161957E0,-8.830437012E0,1.643582153E-1,8.972385668E0
1.295283750E0,-1.719624023E0,-8.674611053E0,5.689668274E-1,8.861698876E0
1.305288750E0,-1.857786713E0,-8.880283356E0,9.861492920E-1,9.125968133E0
1.315293750E0,-1.627715149E0,-9.269324341E0,6.036946106E-1,9.430497205E0
1.325298750E0,-1.050814819E0,-9.733359375E0,-2.417472839E-1,9.792902443E0
1.335303750E0,-7.017407227E-1,-1.018182678E1,-1.010548553E0,1.025588831E1
1.345308750E0,-5.129832458E-1,-1.052820648E1,-1.420545959E0,1.063598770E1
1.355313750E0,-4.583468628E-1,-1.058808197E1,-1.496288452E0,1.070310426E1
1.365318750E0,-4.195774841E-1,-1.051204010E1,-1.150657196E0,1.058314907E1
1.375322750E0,-2.674937439E-1,-1.042162811E1,-5.194198608E-1,1.043799226E1
1.385327750E0,-2.231858826E-1,-1.035860916E1,1.842668152E-1,1.036265169E1
1.395332750E0,-3.956272888E-1,-1.033091675E1,7.033872986E-1,1.036238947E1
1.405337750E0,-5.539979553E-1,-1.021191422E1,6.939569092E-1,1.025044789E1
1.415342750E0,-6.694079590E-1,-1.007135651E1,4.978646851E-1,1.010584970E1
1.425347750E0,-8.005352783E-1,-1.001552261E1,6.556365967E-1,1.006883356E1
1.435352750E0,-8.816665649E-1,-1.003647903E1,1.056652679E0,1.013038806E1
1.445356750E0,-9.193881226E-1,-1.015263748E1,1.164877625E0,1.026051959E1
1.455361750E0,-1.107397156E0,-1.029050079E1,7.620652771E-1,1.037793229E1
1.465366750E0,-1.362017670E0,-1.036055511E1,2.676434326E-1,1.045312525E1
1.475371750E0,-1.648072815E0,-1.025846741E1,8.666976929E-2,1.039037098E1
1.485376750E0,-2.063009949E0,-1.004426285E1,1.859133911E-1,1.025562236E1
1.495381750E0,-2.356399841E0,-9.739795990E0,3.245251465E-1,1.002604422E1
1.505386750E0,-2.563269653E0,-9.444759521E0,3.713777161E-1,9.793454709E0
1.515390750E0,-2.627486115E0,-9.235345001E0,3.046165466E-1,9.606668091E0
1.525395750E0,-2.535876617E0,-9.124425659E0,1.314266968E-1,9.471171353E0
1.535400750E0,-2.298021240E0,-9.133406982E0,-2.098635864E-1,9.420406968E0
1.545405750E0,-1.963017883E0,-9.248816986E0,-6.929090881E-1,9.480199252E0
1.555410750E0,-1.542242889E0,-9.542356567E0,-1.256187744E0,9.747465806E0
1.565415750E0,-1.372196503E0,-1.028750702E1,-1.610800323E0,1.050287587E1
1.575420750E0,-1.413360901E0,-1.153755753E1,-1.586999817E0,1.173164060E1
1.585424750E0,-1.472637634E0,-1.292846512E1,-1.319057007E0,1.307875313E1
1.595429750E0,-1.273401947E0,-1.396505951E1,-7.479945374E-1,1.404293187E1
1.605434750E0,-2.064207458E-1,-1.364068405E1,-2.140548706E-2,1.364226261E1
1.615439750E0,8.455915833E-1,-1.139385635E1,3.412902832E-1,1.143028726E1
1.625444750E0,1.044827271E0,-9.528435516E0,2.615061951E-1,9.589115335E0
1.635449750E0,1.303040314E0,-8.440497894E0,2.083666992E-1,8.543028470E0
1.645454750E0,1.540147247E0,-7.793992310E0,3.296145630E-1,7.951541701E0
1.655458750E0,1.583107910E0,-7.511380005E0,6.256988525E-1,7.701854276E0
1.665463750E0,1.687291260E0,-7.514673157E0,1.012644196E0,7.768057203E0
1.675468750E0,1.799707489E0,-8.109386444E0,1.427880707E0,8.428519375E0
1.685473750E0,1.681004333E0,-9.022038574E0,1.695673828E0,9.332645141E0
1.695478750E0,1.440454559E0,-9.844578094E0,1.597478027E0,1.007683300E1
1.705483750E0,1.002914429E0,-1.061038559E1,1.066532135E0,1.071091082E1
1.715488750E0,5.201683044E-1,-1.127545258E1,3.610491943E-1,1.129321754E1
1.725492750E0,3.372486877E-1,-1.170730453E1,-1.607656860E-1,1.171326435E1
1.735497750E0,3.219804382E-1,-1.189770859E1,-4.980143738E-1,1.191247914E1
1.745502750E0,3.481759644E-1,-1.167766617E1,-6.412664795E-1,1.170044172E1
1.755507750E0,4.414320374E-1,-1.104044128E1,-6.349795532E-1,1.106749317E1
1.765512750E0,4.706213379E-1,-1.034423904E1,-4.945715332E-1,1.036674331E1
1.775517750E0,3.197351074E-1,-9.931397552E0,-3.680845642E-1,9.943358292E0
1.785522750E0,-2.053729248E-1,-9.838440857E0,-1.140628052E-1,9.841245188E0
1.795526750E0,-6.962022400E-1,-9.993967438E0,9.352551270E-1,1.006174860E1
1.805531750E0,-1.618284760E0,-1.001896545E1,2.621498566E0,1.048192583E1
1.815536750E0,-2.114203491E0,-9.895771637E0,3.770958252E0,1.079890174E1
1.825541750E0,-1.609153748E0,-9.429940338E0,4.430636444E0,1.054247077E1
1.835546750E0,-8.445437622E-1,-8.805438995E0,4.597539368E0,9.969271704E0
1.845551750E0,-2.309696960E-1,-8.282725983E0,4.233047333E0,9.304600283E0
1.855556750E0,2.668949890E-1,-7.886499939E0,3.377875671E0,8.583598213E0
1.865560750E0,7.450007629E-1,-7.676636353E0,2.320324860E0,8.054171545E0
1.875565750E0,1.178199921E0,-7.580685883E0,1.315614166E0,7.783687695E0
1.885570750E0,1.598226471E0,-7.459138641E0,5.152285767E-1,7.645818309E0
1.895575750E0,1.635798340E0,-7.321125641E0,-1.474433899E-1,7.503096455E0
1.905580750E0,1.673968964E0,-7.139553223E0,-6.364764404E-1,7.360740083E0
1.915585750E0,1.653012543E0,-7.016958160E0,-8.634045410E-1,7.260552299E0
1.925590750E0,1.323847046E0,-7.222181396E0,-6.911128235E-1,7.374965224E0
1.935594750E0,8.267308044E-1,-7.611072693E0,-2.158511353E-1,7.658883931E0
1.945599750E0,1.077758789E-1,-7.908354492E0,3.212319946E-1,7.915609668E0
1.955604750E0,-7.530839539E-1,-8.083939362E0,7.238946533E-1,8.151149276E0
1.965609750E0,-1.465302887E0,-8.600066071E0,1.226998444E0,8.809867998E0
1.975614750E0,-2.314786377E0,-9.377848663E0,2.177821198E0,9.901776946E0
1.985619750E0,-3.308719482E0,-1.000654129E1,3.540886688E0,1.111828997E1
1.995624750E0,-3.969146118E0,-1.032403107E1,4.551285553E0,1.196051582E1
2.005628750E0,-3.932771759E0,-1.071172485E1,4.753964081E0,1.236154996E1
2.015633750E0,-3.353027344E0,-1.118309464E1,4.384232941E0,1.247100222E1
2.025638750E0,-2.402354279E0,-1.175101364E1,4.614154816E0,1.285099422E1
2.035643750E0,-1.804796906E0,-1.215292786E1,5.771847382E0,1.357443073E1
2.045648750E0,-2.655926971E0,-1.194261520E1,6.883435822E0,1.403786646E1
2.055653750E0,-3.426674194E0,-1.123309067E1,6.540049896E0,1.344234632E1
2.065658750E0,-3.415148163E0,-9.950408020E0,5.191803589E0,1.173152510E1
2.075663750E0,-3.174598389E0,-8.537795563E0,3.511697388E0,9.762379144E0
2.085667750E0,-2.645897827E0,-7.354206848E0,1.495240631E0,7.957441688E0
2.095672750E0,-1.735491028E0,-6.896009674E0,-3.600013733E-1,7.120146032E0
2.105677750E0,-5.533992004E-1,-7.624993744E0,-1.526076508E0,7.795876460E0
2.115682750E0,7.214996338E-2,-9.479187927E0,-1.885030060E0,9.665068427E0
2.125687750E0,-2.856060791E-1,-1.207703568E1,-1.783840485E0,1.221140649E1
2.135692750E0,-6.616241455E-1,-1.504775803E1,-1.154249725E0,1.510645758E1
2.145697750E0,-5.218148804E-1,-1.724533813E1,-3.276686096E-1,1.725634216E1
2.155697792E0,1.734892273E-1,-1.693398560E1,1.630110168E-1,1.693565881E1
2.165702792E0,1.678759003E0,-1.322859100E1,8.057743835E-1,1.335900910E1
2.175707792E0,3.079396362E0,-9.539063416E0,1.747017059E0,1.017489466E1
2.185712792E0,4.151167603E0,-7.216493225E0,3.118016052E0,8.889993871E0
2.195717792E0,4.449946289E0,-5.756579132E0,3.732787628E0,8.177648119E0
2.205722792E0,3.679797821E0,-5.369783478E0,2.510130157E0,6.976835960E0
2.215727792E0,1.944606171E0,-5.776188354E0,4.495152283E-1,6.111293562E0
2.225731792E0,3.451821899E-1,-6.323150940E0,-1.207239532E0,6.446612742E0
2.235736792E0,1.514849854E-1,-6.564598846E0,-2.239343262E0,6.937691544E0
2.245741792E0,6.176156616E-1,-6.871909790E0,-2.859952698E0,7.468863548E0
2.255746792E0,6.402186584E-1,-7.590415649E0,-3.084036713E0,8.218002927E0
2.265751792E0,4.643344116E-1,-8.685837708E0,-2.948718109E0,9.184460878E0
2.275756792E0,4.577481079E-1,-9.808353424E0,-2.587818604E0,1.015431609E1
2.285761792E0,6.036946106E-1,-1.057401123E1,-2.056273956E0,1.078899547E1
2.295765792E0,1.113983459E0,-1.078043198E1,-1.215771790E0,1.090581376E1
2.305770792E0,2.334994354E0,-1.060499680E1,1.013392639E-1,1.085948550E1
2.315775792E0,3.774550781E0,-1.028346542E1,1.572330322E0,1.106657659E1
2.325780792E0,4.358785858E0,-1.033870056E1,1.377884674E0,1.130426068E1
2.335785792E0,3.882925415E0,-1.032358200E1,2.291734314E-1,1.103204313E1
2.345790792E0,2.376009064E0,-1.025562332E1,-4.430786133E-1,1.053658139E1
2.355795792E0,1.025966492E0,-1.017509079E1,-7.346722412E-1,1.025303970E1
2.365799792E0,7.306306458E-1,-1.002674927E1,-9.545649719E-1,1.009855021E1
2.375804792E0,8.321195984E-1,-9.852960663E0,-1.111588440E0,9.950320885E0
2.385809792E0,9.857002258E-1,-9.823172607E0,-1.135987701E0,9.937645248E0
2.395814792E0,1.266366577E0,-9.770631866E0,-9.704319763E-1,9.900033818E0
2.405819792E0,1.420695648E0,-9.635313263E0,-6.453080750E-1,9.760843217E0
2.415824792E0,1.427581329E0,-9.470056915E0,-2.426454163E-1,9.580127516E0
2.425829792E0,1.484163666E0,-9.417067108E0,1.706451416E-2,9.533319774E0
2.435833792E0,1.628762970E0,-9.544901276E0,9.400451660E-2,9.683328251E0
2.445838792E0,1.822609863E0,-9.812844086E0,9.819580078E-2,9.981155153E0
2.455843792E0,2.026934967E0,-1.002704865E1,1.959425354E-1,1.023174293E1
2.465848792E0,2.292782135E0,-9.929451599E0,3.062631226E-1,1.019532521E1
2.475853792E0,2.328258362E0,-9.717791748E0,3.218307495E-2,9.992862413E0
2.485858792E0,1.915865936E0,-9.705517273E0,-6.007008362E-1,9.911026653E0
2.495863792E0,1.413809967E0,-9.780361633E0,-6.839277649E-1,9.905659468E0
2.505867792E0,1.037941589E0,-9.920470276E0,-1.465452576E-1,9.975696905E0
2.515872792E0,8.047265625E-1,-1.006252487E1,4.311035156E-1,1.010385282E1
2.525877792E0,6.713539124E-1,-1.011955627E1,7.006929016E-1,1.016597786E1
2.535882792E0,6.346801758E-1,-1.005533981E1,4.754113770E-1,1.008656005E1
2.545887792E0,5.313949585E-1,-1.001462448E1,2.799179077E-1,1.003261871E1
2.555892792E0,4.128414917E-1,-1.006911118E1,3.968247986E-1,1.008538090E1
2.565897792E0,6.321354675E-1,-1.018646713E1,6.222560120E-1,1.022501396E1
2.575901792E0,8.479866028E-1,-1.022358994E1,7.463479614E-1,1.028581099E1
2.585906792E0,8.848100281E-1,-1.016326538E1,5.774990845E-1,1.021804077E1
2.595911792E0,7.658074951E-1,-1.002046234E1,-5.179229736E-2,1.004981637E1
2.605916792E0,4.427792358E-1,-9.980645142E0,-7.789801025E-1,1.002078544E1
2.615921792E0,5.044509888E-2,-1.000489471E1,-8.812174988E-1,1.004375464E1
2.625926792E0,-2.977308655E-1,-1.000010468E1,-2.532733154E-1,1.000774123E1
2.635931792E0,-5.255570984E-1,-9.949060822E0,4.019142151E-1,9.971035881E0
2.645936792E0,-5.694158936E-1,-9.931846619E0,5.721102905E-1,9.964593414E0
2.655940792E0,-3.869453430E-1,-9.912237396E0,2.164498901E-1,9.922148329E0
2.665945792E0,3.382965088E-2,-9.945318604E0,-5.629792786E-1,9.961297719E0
2.675950792E0,6.682104492E-1,-1.026250900E1,-1.268611908E0,1.036218956E1
2.685955792E0,1.226250000E0,-1.127665009E1,-1.614243164E0,1.145741276E1
2.695960792E0,1.488504639E0,-1.242760666E1,-1.573827209E0,1.261499050E1
2.705965792E0,1.682501221E0,-1.315674042E1,-1.043779449E0,1.330489024E1
2.715970792E0,2.037263489E0,-1.314431625E1,-4.565505981E-2,1.330133740E1
2.725974792E0,2.588417358E0,-1.209918961E1,9.439370728E-1,1.240892061E1
2.735979792E0,2.677781525E0,-1.044168640E1,1.117875366E0,1.083738779E1
2.745984792E0,2.488425293E0,-9.133406982E0,6.863227844E-1,9.491176034E0
2.755989792E0,2.242786102E0,-8.203390961E0,2.279759216E-1,8.507507612E0
2.765994792E0,2.028581543E0,-7.675438843E0,-5.643264771E-2,7.939186933E0
2.775999792E0,1.948049011E0,-7.559579773E0,-1.020877075E-1,7.807212255E0
2.786004792E0,2.071542206E0,-7.820337524E0,2.155517578E-2,8.090082245E0
2.796008792E0,2.363734589E0,-8.429420929E0,3.224295044E-1,8.760498798E0
2.806013792E0,2.510279846E0,-9.083261261E0,7.634124756E-1,9.454625252E0
2.816018792E0,2.557132416E0,-9.595496063E0,1.037193146E0,9.984399857E0
2.826023792E0,2.589914246E0,-1.000728973E1,1.006806335E0,1.038591174E1
2.836028792E0,2.566263428E0,-1.044662613E1,5.727090454E-1,1.077245103E1
2.846033792E0,2.689457245E0,-1.076306808E1,-2.679428101E-2,1.109403140E1
2.856038792E0,2.928510132E0,-1.083267334E1,-5.659730530E-1,1.123580477E1
2.866042792E0,3.444786530E0,-1.064466431E1,-8.765771484E-1,1.122246942E1
2.876047792E0,4.064797211E0,-1.033211426E1,-9.677375793E-1,1.114502927E1
2.886052792E0,4.253554688E0,-1.029424301E1,-6.054908752E-1,1.115485481E1
2.896057792E0,3.415597229E0,-1.081575851E1,5.707630920E-1,1.135661513E1
2.906062792E0,1.749711456E0,-1.141511215E1,2.442321167E0,1.180386413E1
2.916067792E0,1.060245209E0,-1.114133148E1,3.987557831E0,1.188082508E1
2.926072792E0,1.240620117E0,-1.043150757E1,4.846322021E0,1.156902440E1
2.936076792E0,1.496737518E0,-9.595645752E0,4.689747620E0,1.078472871E1
2.946081792E0,1.473835144E0,-8.903185730E0,3.953279114E0,9.852274962E0
2.956086792E0,1.275946655E0,-8.276738434E0,3.119213562E0,8.936550353E0
2.966091792E0,1.315314789E0,-7.797285461E0,2.330653381E0,8.243764840E0
2.976096792E0,1.475182343E0,-7.510032806E0,1.657952271E0,7.831063876E0
2.986101792E0,1.667682037E0,-7.381749573E0,1.111438751E0,7.648966350E0
2.996106792E0,1.937570801E0,-7.308402100E0,7.063810730E-1,7.593806429E0
3.006110792E0,2.294877777E0,-7.212751007E0,3.370989990E-1,7.576534619E0
3.016115792E0,2.577939148E0,-6.925947418E0,6.735992432E-2,7.390470570E0
3.026120792E0,2.736010437E0,-6.571933594E0,-1.216969299E-1,7.119752412E0
3.036125792E0,2.790796509E0,-6.402186584E0,-1.499880981E-1,6.985630583E0
3.046130792E0,2.690654755E0,-6.489604797E0,4.041595459E-2,7.025398699E0
3.056135792E0,2.351759491E0,-6.734944611E0,3.769161987E-1,7.143690743E0
3.066140792E0,1.799557800E0,-6.745572510E0,6.899153137E-1,7.015492848E0
3.076144792E0,1.290915527E0,-6.762337646E0,1.039438477E0,6.962478416E0
3.086149792E0,8.065228271E-1,-7.040608978E0,1.527274017E0,7.249359957E0
3.096154792E0,4.420307922E-1,-7.756420441E0,2.170785828E0,8.066582943E0
3.106159792E0,2.142045593E-1,-8.737031250E0,3.143463135E0,9.287785481E0
3.116164792E0,-2.270777893E-1,-9.867181091E0,4.543651428E0,1.086543121E1
3.126169792E0,-6.219566345E-1,-1.073298065E1,5.330415344E0,1.199987631E1
3.136174792E0,-5.647755432E-1,-1.123234222E1,5.074447632E0,1.233833465E1
3.146179792E0,-3.767665100E-1,-1.180759598E1,4.500541077E0,1.264184107E1
3.156184375E0,-3.037184143E-1,-1.249002686E1,4.163591766E0,1.316922595E1
3.166189375E0,-7.107220459E-1,-1.288161255E1,4.478387146E0,1.365639115E1
3.176194375E0,-1.576970673E0,-1.307246567E1,5.646857300E0,1.432700920E1
3.186199375E0,-1.859133911E0,-1.278356644E1,6.760691071E0,1.458022268E1
3.196204375E0,-1.362317047E0,-1.195309341E1,6.785240021E0,1.381201767E1
3.206209375E0,-8.943901062E-1,-1.103580093E1,5.880671082E0,1.253679099E1
3.216214375E0,-2.276765442E-1,-9.703721008E0,4.454886017E0,1.067988986E1
3.226218375E0,5.712121582E-1,-8.165220337E0,2.659369812E0,8.606355458E0
3.236223375E0,1.224753113E0,-6.995402985E0,8.171507263E-1,7.148665499E0
3.246228375E0,1.737736359E0,-6.582860870E0,-4.406835938E-1,6.822608513E0
3.256233375E0,2.219883728E0,-7.275919647E0,-6.768923950E-1,7.637085425E0
3.266238375E0,2.615511017E0,-9.216035156E0,1.372645569E-1,9.580972990E0
3.276243375E0,3.163222046E0,-1.191357559E1,1.471889191E0,1.241393229E1
3.286248375E0,4.404590607E0,-1.445903229E1,1.871857452E0,1.523049190E1
3.296252375E0,5.372627563E0,-1.576327011E1,1.002465363E0,1.668384693E1
3.306257375E0,5.147944794E0,-1.540701096E1,-1.772314453E-1,1.624526802E1
3.316262375E0,4.074077911E0,-1.264794846E1,-5.069956970E-1,1.329758458E1
3.326267375E0,3.567381592E0,-9.512269135E0,-1.986369324E-1,1.016114817E1
3.336272375E0,3.118764496E0,-7.134912872E0,7.708969116E-1,7.824829437E0
3.346277375E0,2.328108673E0,-5.308411102E0,2.108066254E0,6.167921996E0
3.356282375E0,9.807604980E-1,-4.819827118E0,2.249522095E0,5.408601876E0
3.366287375E0,8.801696777E-2,-5.307962036E0,9.837542725E-1,5.399072183E0
3.376291375E0,2.715353394E-1,-5.549709320E0,-4.604425049E-1,5.575393464E0
3.386296375E0,8.655001831E-1,-5.914201355E0,-1.601968689E0,6.188147697E0
3.396301375E0,1.404678955E0,-6.802005157E0,-2.378104706E0,7.341374471E0
3.406306375E0,1.672023010E0,-7.936196594E0,-2.473755798E0,8.479289185E0
3.416311375E0,1.816173248E0,-9.026229858E0,-1.987117767E0,9.419126698E0
3.426316375E0,2.294279022E0,-9.941426697E0,-1.130149841E0,1.026513125E1
3.436321375E0,3.094215546E0,-1.070064789E1,-1.609153748E-1,1.114019429E1
3.446325375E0,3.583847351E0,-1.132664612E1,8.086184692E-1,1.190759161E1
3.456330375E0,3.269950104E0,-1.175460617E1,1.420995026E0,1.228342651E1
3.466335375E0,2.350711670E0,-1.157602753E1,6.866221619E-1,1.183223177E1
3.476340375E0,2.090552673E0,-1.077803696E1,-5.733078003E-1,1.099386979E1
3.486345375E0,1.977687378E0,-1.013242950E1,-1.351539459E0,1.041172579E1
3.496350375E0,1.516945496E0,-9.802365875E0,-1.583107910E0,1.004458715E1
3.506355375E0,1.086590424E0,-9.646988983E0,-1.397194519E0,9.808018542E0
3.516359375E0,9.330097961E-1,-9.526788940E0,-1.040785675E0,9.628782354E0
3.526364375E0,9.282197571E-1,-9.388925629E0,-5.209167480E-1,9.449067183E0
3.536369375E0,1.169967041E0,-9.208550720E0,1.067280579E-1,9.283190191E0
3.546374375E0,1.649869080E0,-8.960217133E0,5.237608337E-1,9.125890885E0
3.556379375E0,1.923799438E0,-8.888965302E0,5.992039490E-1,9.114480445E0
3.566384375E0,2.316432953E0,-9.001381531E0,3.770658875E-1,9.302306691E0
3.576389375E0,2.801873474E0,-9.330547028E0,-1.627116394E-1,9.743514657E0
3.586393375E0,3.034190369E0,-9.724527740E0,-8.313711548E-1,1.022075971E1
3.596398375E0,2.876867523E0,-9.994117126E0,-1.129102020E0,1.046105230E1
3.606403375E0,2.495460663E0,-1.012913635E1,-7.985893250E-1,1.046252704E1
3.616408375E0,2.321222992E0,-1.020996826E1,-1.534309387E-1,1.047163164E1
3.626413375E0,2.321971436E0,-1.016146912E1,4.011657715E-1,1.043110444E1
3.636418375E0,2.219135284E0,-9.847122803E0,2.971321106E-1,1.009844921E1
3.646423375E0,1.911225586E0,-9.392518158E0,-3.359014893E-1,9.590881628E0
3.656427375E0,1.589694214E0,-9.080417175E0,-7.086264038E-1,9.245715502E0
3.666432375E0,1.241967316E0,-9.086554413E0,-8.795709229E-1,9.213121019E0
3.676437375E0,9.894424438E-1,-9.346264343E0,-1.142873383E0,9.467724811E0
3.686442375E0,8.614585876E-1,-9.651329956E0,-1.090332642E0,9.750851557E0
3.696447375E0,7.009922791E-1,-9.908495178E0,-5.435197449E-1,9.948119450E0
3.706452375E0,5.316943359E-1,-1.014111145E1,2.817141724E-1,1.015894695E1
3.716457375E0,6.039939880E-1,-1.033016830E1,9.925859070E-1,1.039530725E1
3.726461375E0,9.126521301E-1,-1.039213943E1,1.072819061E0,1.048715580E1
3.736466375E0,1.093176727E0,-1.024948608E1,6.084846497E-1,1.032556313E1
3.746471375E0,1.017583923E0,-1.007973907E1,9.400451660E-2,1.013140927E1
3.756476375E0,9.107061768E-1,-1.001791763E1,-3.893403625E-1,1.006675943E1
3.766481375E0,7.289840698E-1,-1.013048355E1,-7.429051208E-1,1.018381180E1
3.776486375E0,3.689826965E-1,-1.022074585E1,-5.734574890E-1,1.024346853E1
3.786491375E0,-7.334747314E-3,-1.024110352E1,2.694396973E-3,1.024110650E1
3.796496375E0,-2.365081787E-1,-1.020547760E1,5.785469055E-1,1.022459905E1
3.806500375E0,-1.842668152E-1,-1.014979340E1,9.698332214E-1,1.019768781E1
3.816505375E0,7.358697510E-1,-9.851014709E0,9.500743103E-1,9.924043344E0
3.826510375E0,1.614692230E0,-9.713899841E0,2.739303589E-1,9.850995836E0
3.836515375E0,2.037113800E0,-1.013602203E1,-6.731501770E-1,1.036059392E1
3.846520375E0,2.170037384E0,-1.110211304E1,-1.379531250E0,1.139601170E1
3.856525375E0,2.287393341E0,-1.202853653E1,-1.475631409E0,1.233269425E1
3.866530375E0,2.348466339E0,-1.264330811E1,-1.083746338E0,1.290515556E1
3.876534375E0,2.489772491E0,-1.283401154E1,-4.442761230E-1,1.308083332E1
3.886539375E0,2.784509583E0,-1.267489243E1,2.953358459E-1,1.298050904E1
3.896544375E0,3.149300995E0,-1.194635742E1,8.322692871E-1,1.238249670E1
3.906549375E0,2.957849121E0,-1.055844360E1,7.280859375E-1,1.098907239E1
3.916554375E0,2.581831055E0,-9.201066284E0,2.291734314E-1,9.559183690E0
3.926559375E0,2.387834473E0,-8.071664886E0,-1.233435059E-1,8.418357389E0
3.936564375E0,2.371668091E0,-7.258555756E0,-1.266366577E-1,7.637242829E0
3.946568375E0,2.503843231E0,-6.959926758E0,1.175056458E-1,7.397541414E0
3.956573375E0,2.761607208E0,-7.004983063E0,4.936734009E-1,7.545858169E0
3.966578375E0,3.265160065E0,-7.533683624E0,1.005758514E0,8.272194956E0
3.976583375E0,3.630101166E0,-8.364905090E0,1.497036896E0,9.240692134E0
3.986588375E0,3.657793579E0,-9.011560364E0,1.524579620E0,9.844390132E0
3.996593375E0,3.414699097E0,-9.372908936E0,9.530680847E-1,1.002097453E1
4.006598375E0,3.190166016E0,-9.587113495E0,3.562591553E-2,1.010401769E1
4.016602375E0,3.146307220E0,-9.900112610E0,-7.447013855E-1,1.041470398E1
4.026607375E0,3.351979523E0,-1.022897873E1,-1.176703033E0,1.082831485E1
4.036612375E0,3.625909882E0,-1.061547501E1,-1.223555603E0,1.128417566E1
4.046617375E0,3.727847900E0,-1.106049957E1,-8.717871094E-1,1.170433738E1
4.056622375E0,3.333268433E0,-1.156644745E1,1.901046753E-2,1.203718183E1
4.066627375E0,2.360591125E0,-1.189920547E1,1.389111328E0,1.221036902E1
4.076632375E0,1.620679779E0,-1.165027313E1,2.705473938E0,1.206959221E1
4.086637375E0,1.339863739E0,-1.093730576E1,3.501518555E0,1.156202942E1
4.096641375E0,1.332528992E0,-1.017883301E1,3.705993347E0,1.091414961E1
4.106646375E0,1.234033813E0,-9.523196411E0,3.429817657E0,1.019694849E1
4.116651375E0,1.135538635E0,-9.026080170E0,3.121608582E0,9.617900569E0
4.126656375E0,1.037791901E0,-8.639434204E0,2.803070984E0,9.141883960E0
4.136661375E0,1.056353302E0,-8.402027893E0,2.504292297E0,8.830709763E0
4.146666375E0,1.268761597E0,-8.315058746E0,2.145787811E0,8.680689101E0
4.156671125E0,1.736239471E0,-8.147257690E0,1.845063171E0,8.532091976E0
4.166675125E0,2.313289490E0,-7.774832153E0,1.540596313E0,8.256679737E0
4.176680125E0,2.731669464E0,-7.379055176E0,1.196461945E0,7.958894052E0
4.186685125E0,2.923420715E0,-7.052733765E0,8.602610779E-1,7.682935074E0
4.196690125E0,3.011437683E0,-6.740932159E0,5.813909912E-1,7.405871912E0
4.206695125E0,2.940784607E0,-6.463858337E0,4.269122314E-1,7.114206404E0
4.216700125E0,2.756966858E0,-6.283483429E0,3.381468201E-1,6.870034463E0
4.226705125E0,2.411335602E0,-6.293362885E0,3.983216858E-1,6.751267729E0
4.236709125E0,1.970951385E0,-6.456972656E0,5.810916138E-1,6.776046983E0
4.246714125E0,1.475032654E0,-6.591393127E0,7.524851990E-1,6.796206196E0
4.256719125E0,9.707313538E-1,-6.610253906E0,8.563691711E-1,6.735810584E0
4.266724125E0,6.475534058E-1,-7.011419678E0,9.904902649E-1,7.110583821E0
4.276729125E0,5.125341797E-1,-7.847730560E0,1.212927704E0,7.957434250E0
4.286734125E0,4.742138672E-1,-9.014853516E0,1.649719391E0,9.176820624E0
4.296739125E0,1.308279419E-1,-1.037507492E1,2.902015228E0,1.077408873E1
4.306744125E0,-4.930746460E-1,-1.161614410E1,4.431384888E0,1.244247156E1
4.316748125E0,-6.840774536E-1,-1.201371735E1,4.558470612E0,1.286767348E1
4.326753125E0,-7.833210754E-1,-1.208377167E1,4.047433319E0,1.276764842E1
4.336758125E0,-1.099313965E0,-1.219304443E1,3.588637390E0,1.275763074E1
4.346763125E0,-1.600322113E0,-1.227851669E1,3.999682617E0,1.301231970E1
4.356768125E0,-1.759740601E0,-1.198318085E1,5.560037842E0,1.332694005E1
4.366773125E0,-1.445394287E0,-1.130928223E1,7.027286682E0,1.339297529E1
4.376778125E0,-9.660910034E-1,-1.061173279E1,6.906487885E0,1.269810141E1
4.386782125E0,-3.722758484E-1,-9.788295135E0,5.677393799E0,1.132175390E1
4.396787125E0,3.591032410E-1,-8.782087555E0,3.995790710E0,9.655069154E0
4.406792125E0,1.195863190E0,-7.889194336E0,2.038011932E0,8.235470155E0
4.416797125E0,1.972897339E0,-7.478448486E0,1.383123779E-1,7.735544324E0
4.426802125E0,2.660267944E0,-8.317902832E0,-1.248703308E0,8.821779470E0
4.436807125E0,3.362757111E0,-1.092622879E1,-1.569935303E0,1.153929408E1
4.446812125E0,4.146826630E0,-1.441068283E1,-6.327342224E-1,1.500880753E1
4.456816125E0,4.995861053E0,-1.701092560E1,9.243278503E-1,1.775343909E1
4.466821125E0,5.963149567E0,-1.673953995E1,1.472188568E0,1.783083536E1
4.476826125E0,5.811664581E0,-1.337618408E1,1.442999268E0,1.465537419E1
4.486831125E0,4.542154541E0,-1.016491196E1,1.395547943E0,1.122070216E1
4.496836125E0,3.612288208E0,-8.111931152E0,1.256936188E0,8.968385680E0
4.506841125E0,2.862497406E0,-6.561455383E0,1.220861206E0,7.262030724E0
4.516846125E0,2.034419403E0,-5.542973328E0,1.255588989E0,6.036548627E0
4.526850125E0,1.096918945E0,-5.423372040E0,8.520281982E-1,5.598405800E0
4.536855125E0,4.944218445E-1,-5.667813721E0,1.267863464E-1,5.690750400E0
4.546860125E0,3.183879089E-1,-5.746549988E0,-4.065545654E-1,5.769704866E0
4.556865125E0,5.884263611E-1,-5.910010071E0,-7.589218140E-1,5.987522604E0
4.566870125E0,1.219064941E0,-6.586004333E0,-1.043629761E0,6.778697182E0
4.576875125E0,2.014810181E0,-8.071066132E0,-1.063238983E0,8.386420315E0
4.586880125E0,3.019969940E0,-9.936486969E0,-7.849676514E-1,1.041490115E1
4.596884125E0,3.464844818E0,-1.150597321E1,-4.189787292E-1,1.202364804E1
4.606889125E0,3.551813965E0,-1.216565140E1,9.879455566E-2,1.267391876E1
4.616894125E0,3.598516846E0,-1.172002808E1,6.078858948E-1,1.227509295E1
4.626899125E0,3.392245789E0,-1.063418610E1,6.271957397E-1,1.117974150E1
4.636904125E0,2.582579498E0,-9.713151398E0,7.933502197E-3,1.005062634E1
4.646909125E0,1.858385468E0,-9.218280487E0,-7.882608032E-1,9.436718009E0
4.656914125E0,1.606758728E0,-8.822204132E0,-1.237177277E0,9.052268609E0
4.666919125E0,1.415306854E0,-8.713829498E0,-1.356628876E0,8.931649339E0
4.676923125E0,1.226699066E0,-8.916807404E0,-1.213676147E0,9.082249427E0
4.686928125E0,1.006806335E0,-9.266929321E0,-8.800199890E-1,9.362909442E0
4.696933125E0,8.405021667E-1,-9.516460419E0,-4.105961609E-1,9.562324613E0
4.706938125E0,8.981323242E-1,-9.526788940E0,1.481918335E-1,9.570178160E0
4.716943125E0,1.302890625E0,-9.178762665E0,5.697152710E-1,9.288260522E0
4.726948125E0,1.731599121E0,-8.716523895E0,3.257226562E-1,8.892824050E0
4.736953125E0,1.858086090E0,-8.550818481E0,-3.993695068E-1,8.759479244E0
4.746957125E0,1.863325195E0,-8.750353546E0,-9.515711975E-1,8.997008153E0
4.756962125E0,1.946552124E0,-9.162895660E0,-1.053209839E0,9.426397669E0
4.766967125E0,2.147135010E0,-9.522747345E0,-6.174659729E-1,9.781317395E0
4.776972125E0,2.352657623E0,-9.741741943E0,4.520599365E-2,1.002190489E1
4.786977125E0,2.387235718E0,-9.858499146E0,4.556524658E-1,1.015364560E1
4.796982125E0,2.296674042E0,-9.868827667E0,2.676434326E-1,1.013607933E1
4.806987125E0,2.140399017E0,-9.806856537E0,-3.914360046E-1,1.004534545E1
4.816991125E0,1.963466949E0,-9.768835602E0,-9.508227539E-1,1.000946629E1
4.826996125E0,1.857487335E0,-9.741741943E0,-1.158141632E0,9.984642574E0
4.837001125E0,1.755998383E0,-9.811945953E0,-1.135688324E0,1.003232783E1
4.847006125E0,1.679208069E0,-9.963880005E0,-9.964778137E-1,1.015340399E1
4.857011125E0,1.601369934E0,-1.004935226E1,-8.330177307E-1,1.021018047E1
4.867016125E0,1.438358917E0,-1.002225861E1,-6.286926270E-1,1.014444668E1
4.877021125E0,1.261726227E0,-1.009156448E1,-4.281097412E-1,1.017914067E1
4.887026125E0,1.186283112E0,-1.030337402E1,-1.700463867E-1,1.037283470E1
4.897030125E0,1.272803192E0,-1.050485504E1,2.659968567E-1,1.058502535E1
4.907035125E0,1.618584137E0,-1.060918808E1,9.243278503E-1,1.077167899E1
4.917040125E0,2.107916565E0,-1.059152481E1,1.436562653E0,1.089437572E1
4.927045125E0,2.443967743E0,-1.054227722E1,1.181493073E0,1.088616155E1
4.937050125E0,2.426154785E0,-1.047252228E1,2.725831604E-1,1.075333676E1
4.947055125E0,2.032024384E0,-1.046578629E1,-5.046006775E-1,1.067316389E1
4.957060125E0,1.314716034E0,-1.054901321E1,-5.565426636E-1,1.064518190E1
4.967064125E0,6.236032104E-1,-1.057999878E1,8.681945801E-2,1.059871656E1
4.977069125E0,2.308200073E-1,-1.052551208E1,8.590635681E-1,1.056303331E1
4.987074125E0,1.368154907E-1,-1.034768188E1,1.055904236E0,1.040231573E1
4.997079125E0,3.059637451E-1,-1.014365616E1,5.275030518E-1,1.016196996E1
5.007084125E0,7.719447327E-1,-9.950557709E0,-3.450325012E-1,9.986418017E0
5.017089125E0,1.104104004E0,-1.022823029E1,-1.198856964E0,1.035726790E1
5.027094125E0,1.235680389E0,-1.112531479E1,-1.655557251E0,1.131549402E1
5.037098125E0,1.237326965E0,-1.202569244E1,-1.542242889E0,1.218715594E1
5.047103125E0,1.209784241E0,-1.245739471E1,-1.024319916E0,1.255784585E1
5.057108125E0,1.551972656E0,-1.215247879E1,-5.349874878E-1,1.226285332E1
5.067113125E0,2.157762909E0,-1.148082550E1,-2.857557678E-1,1.168533060E1
5.077118125E0,2.500400391E0,-1.093356354E1,2.694396973E-2,1.121586108E1
5.087123125E0,2.654130707E0,-1.029244675E1,3.068618774E-1,1.063358049E1
5.097128125E0,2.672093353E0,-9.389374695E0,3.818559265E-1,9.769659871E0
5.107133125E0,2.638712769E0,-8.342900848E0,2.896476746E-1,8.755038288E0
5.117137125E0,2.658471680E0,-7.357799377E0,2.145039368E-1,7.826282342E0
5.127142125E0,2.830464020E0,-6.687193909E0,2.847079468E-1,7.267127875E0
5.137147125E0,3.159779205E0,-6.514004059E0,5.307962036E-1,7.259352458E0
5.147152125E0,3.448678436E0,-6.708300018E0,8.328680420E-1,7.588698259E0
5.157157750E0,3.641776886E0,-7.354955292E0,1.069376221E0,8.276561589E0
5.167162750E0,3.676205292E0,-8.450826416E0,1.121916962E0,9.283838114E0
5.177167750E0,3.572171631E0,-9.329948273E0,9.086105347E-1,1.003164583E1
5.187171750E0,3.427871704E0,-9.896819458E0,2.519261169E-1,1.047667918E1
5.197176750E0,3.376528473E0,-1.042806473E1,-6.342311096E-1,1.097942292E1
5.207181750E0,3.699556732E0,-1.089269852E1,-1.302890625E0,1.157735397E1
5.217186750E0,3.964954834E0,-1.126871658E1,-1.542242889E0,1.204505514E1
5.227191750E0,4.061054993E0,-1.147768204E1,-1.332379303E0,1.224763598E1
5.237196750E0,3.932771759E0,-1.157602753E1,-6.727011108E-1,1.224433068E1
5.247201750E0,3.451821899E0,-1.172885971E1,3.733236694E-1,1.223194977E1
5.257205750E0,2.803969116E0,-1.174607391E1,1.493893433E0,1.216816390E1
5.267210750E0,2.263892212E0,-1.128533203E1,2.360142059E0,1.174964670E1
5.277215750E0,1.858535156E0,-1.061891785E1,2.919678497E0,1.116871039E1
5.287220750E0,1.556313629E0,-9.993817749E0,3.145858154E0,1.059221076E1
5.297225750E0,1.331481171E0,-9.517059174E0,3.059338074E0,1.008497927E1
5.307230750E0,1.202748871E0,-9.025481415E0,2.850372620E0,9.540992804E0
5.317235750E0,1.043779449E0,-8.715326385E0,2.669249268E0,9.174490787E0
5.327239750E0,1.010548553E0,-8.424930267E0,2.509381714E0,8.848596215E0
5.337244750E0,1.351240082E0,-8.030650177E0,2.255060577E0,8.449999422E0
5.347249750E0,1.817071381E0,-7.673343201E0,1.845661926E0,8.098667312E0
5.357254750E0,2.183359680E0,-7.336244202E0,1.471290436E0,7.794371946E0
5.367259750E0,2.450404358E0,-7.045249329E0,1.114432526E0,7.542014285E0
5.377264750E0,2.549348602E0,-6.779252472E0,7.812254333E-1,7.284761873E0
5.387269750E0,2.516417084E0,-6.547684021E0,5.078938293E-1,7.032956499E0
5.397274750E0,2.326162720E0,-6.248456268E0,2.978805542E-1,6.674052109E0
5.407278750E0,2.099983063E0,-5.931265869E0,2.115101624E-1,6.295600069E0
5.417283750E0,1.939516754E0,-5.766159210E0,2.273771667E-1,6.087858216E0
5.427288750E0,1.847607880E0,-5.841602325E0,3.409909058E-1,6.136305680E0
5.437293750E0,1.676663361E0,-6.155499573E0,5.593867493E-1,6.404239889E0
5.447298750E0,1.388063507E0,-6.615343323E0,8.012837219E-1,6.806727788E0
5.457303750E0,9.967771912E-1,-7.132068787E0,1.037492523E0,7.275737810E0
5.467308750E0,6.671626282E-1,-7.906707916E0,1.267564087E0,8.035412544E0
5.477312750E0,4.572990417E-1,-8.960516510E0,1.520687714E0,9.100135695E0
5.487317750E0,1.868115234E-1,-1.010353958E1,2.298769684E0,1.036343344E1
5.497322750E0,-3.619473267E-1,-1.122111557E1,3.936663666E0,1.189713248E1
5.507327750E0,-6.215075684E-1,-1.187690186E1,4.989873505E0,1.289751553E1
5.517332750E0,-8.331674194E-1,-1.239781860E1,5.370082855E0,1.353653811E1
5.527337750E0,-1.213227081E0,-1.284823196E1,5.542374573E0,1.404517356E1
5.537342750E0,-1.658700714E0,-1.295989975E1,6.237828369E0,1.447828693E1
5.547346750E0,-2.247875519E0,-1.260468842E1,7.620054016E0,1.489954152E1
5.557351750E0,-2.732717285E0,-1.192704758E1,8.111182709E0,1.468037781E1
5.567356750E0,-2.577041016E0,-1.098236206E1,7.055278473E0,1.330527606E1
5.577361750E0,-1.837578735E0,-9.919871521E0,5.538183289E0,1.150878016E1
5.587366750E0,-6.574328613E-1,-9.044491882E0,3.727548523E0,9.804573900E0
5.597371750E0,7.177574158E-1,-8.806187439E0,1.398392029E0,8.945368253E0
5.607376750E0,2.024390259E0,-9.626481628E0,-5.511538696E-1,9.852465430E0
5.617381750E0,3.277284851E0,-1.198572556E1,-1.374591522E0,1.250150851E1
5.627385750E0,4.435276794E0,-1.504985367E1,-1.295106812E0,1.574315970E1
5.637390750E0,5.586532745E0,-1.704460556E1,-2.975811768E-1,1.793924417E1
5.647395750E0,6.626869354E0,-1.558768524E1,1.622625732E-1,1.693864392E1
5.657400750E0,6.232738953E0,-1.118144806E1,3.517684937E-2,1.280129107E1
5.667405750E0,5.033133545E0,-8.564140778E0,1.910028076E-1,9.935462879E0
5.677410750E0,3.783232727E0,-7.440726929E0,2.291734314E-1,8.350436369E0
5.687415750E0,2.958447876E0,-6.516099701E0,2.324665833E-1,7.160028621E0
5.697419750E0,2.546654205E0,-5.867648163E0,2.680924988E-1,6.402079052E0
5.707424750E0,2.217339020E0,-5.605094147E0,2.151026917E-1,6.031578723E0
5.717429750E0,1.794318695E0,-5.582790527E0,-1.167572021E-1,5.865216270E0
5.727434750E0,1.617236938E0,-5.607938232E0,-5.662724304E-1,5.863880200E0
5.737439750E0,1.887574768E0,-5.765859833E0,-9.234297180E-1,6.136839623E0
5.747444750E0,2.362986145E0,-6.388265533E0,-1.086141357E0,6.897343191E0
5.757449750E0,3.014132080E0,-7.476053467E0,-9.827064514E-1,8.120472868E0
5.767453750E0,3.974684601E0,-8.615034943E0,-6.544390869E-1,9.510269989E0
5.777458750E0,4.789589996E0,-9.742490387E0,-6.426136780E-1,1.087516637E1
5.787463750E0,5.062322845E0,-1.074705139E1,-9.223818970E-1,1.191541080E1
5.797468750E0,5.054389343E0,-1.127844635E1,-1.229992218E0,1.242026910E1
5.807473750E0,4.865332489E0,-1.114073273E1,-1.196312256E0,1.221550445E1
5.817478750E0,4.045187988E0,-1.054841446E1,-9.029223633E-1,1.133348412E1
5.827483750E0,2.735860748E0,-9.993967438E0,-7.949967957E-1,1.039212871E1
5.837488750E0,2.227068787E0,-9.475595398E0,-9.039701843E-1,9.775679292E0
5.847492750E0,1.891167297E0,-9.298513641E0,-8.872050476E-1,9.530267703E0
5.857497750E0,1.512604523E0,-9.411678314E0,-6.490502930E-1,9.554523924E0
5.867502750E0,1.223106537E0,-9.675579529E0,-3.529660034E-1,9.758965817E0
5.877507750E0,1.066382446E0,-9.905950470E0,-1.243913269E-1,9.963960028E0
5.887512750E0,9.897418213E-1,-9.957892456E0,3.592529297E-3,1.000695878E1
5.897517750E0,9.732760620E-1,-9.852511597E0,5.852828979E-2,9.900640212E0
5.907522750E0,9.484277344E-1,-9.647138672E0,-4.790039062E-3,9.693648573E0
5.917526750E0,8.625064087E-1,-9.358538818E0,-2.028282166E-1,9.400388577E0
5.927531750E0,7.445516968E-1,-9.113797760E0,-5.146298218E-1,9.158630394E0
5.937536750E0,6.700067139E-1,-9.025182037E0,-7.876620483E-1,9.084229814E0
5.947541750E0,9.704319763E-1,-9.161099396E0,-8.011340332E-1,9.247123666E0
5.957546750E0,1.768272858E0,-9.507030029E0,-5.382806396E-1,9.685048008E0
5.967551750E0,2.324815521E0,-9.954000549E0,-1.420545959E-1,1.022287013E1
5.977556750E0,2.557431793E0,-1.024589355E1,1.833686829E-1,1.056183773E1
5.987561750E0,2.703228607E0,-1.025053391E1,3.378474426E-1,1.060636748E1
5.997565750E0,2.686762848E0,-1.008123596E1,3.547622681E-1,1.043915080E1
6.007570750E0,2.490670624E0,-9.865534515E0,3.174897766E-1,1.018003002E1
6.017575750E0,2.240690460E0,-9.709259491E0,1.456471252E-1,9.965521897E0
6.027580750E0,1.992057495E0,-9.610464935E0,-1.661544800E-1,9.816156918E0
6.037585750E0,1.611099701E0,-9.653724976E0,-3.749702454E-1,9.794419372E0
6.047590750E0,1.277892609E0,-9.788744202E0,-2.462379456E-1,9.874874971E0
6.057594750E0,1.104253693E0,-9.935738525E0,8.951385498E-2,9.997314089E0
6.067599750E0,1.028810577E0,-1.009695328E1,5.096900940E-1,1.016202247E1
6.077604750E0,1.045725403E0,-1.017568954E1,7.351213074E-1,1.025566198E1
6.087609750E0,1.165027313E0,-1.012314880E1,5.780978394E-1,1.020635231E1
6.097614750E0,1.333427124E0,-1.002989273E1,3.766168213E-1,1.012514772E1
6.107619750E0,1.407523041E0,-9.950258331E0,2.384541321E-1,1.005214516E1
6.117624750E0,1.297501831E0,-1.002630020E1,-1.989363098E-1,1.011186345E1
6.127629750E0,9.719288635E-1,-1.019065842E1,-7.391629028E-1,1.026355331E1
6.137633750E0,5.786965942E-1,-1.024035507E1,-5.662724304E-1,1.027231358E1
6.147638750E0,2.095642090E-1,-1.016895355E1,1.535806274E-1,1.017227214E1
6.157642917E0,-3.143463135E-2,-1.007509872E1,6.108796692E-1,1.009365030E1
6.167647917E0,3.382965088E-2,-1.000654129E1,6.372248840E-1,1.002686734E1
6.177652917E0,8.738827515E-1,-9.816286926E0,4.956193542E-1,9.867562953E0
6.187657917E0,1.833537140E0,-9.811047821E0,9.325607300E-2,9.981343321E0
6.197662917E0,2.471061401E0,-1.017030075E1,-9.165440369E-1,1.050624646E1
6.207666917E0,2.652933197E0,-1.104238724E1,-1.695673828E0,1.148249451E1
6.217671917E0,2.635569305E0,-1.196102692E1,-1.584604797E0,1.235003493E1
6.227676917E0,2.527643738E0,-1.257579849E1,-9.398954773E-1,1.286169095E1
6.237681917E0,2.508483582E0,-1.295002029E1,-1.540296936E-1,1.319163525E1
6.247686917E0,2.942131805E0,-1.280736694E1,7.153623962E-1,1.316041530E1
6.257691917E0,3.474574585E0,-1.182481018E1,1.182840271E0,1.238135354E1
6.267696917E0,3.291056213E0,-1.020233414E1,8.458909607E-1,1.075333457E1
6.277701917E0,2.878813477E0,-8.701255646E0,1.954934692E-1,9.167204293E0
6.287705917E0,2.499951324E0,-7.611521759E0,-1.600172424E-1,8.013153289E0
6.297710917E0,2.187700653E0,-7.044949951E0,-1.088237000E-1,7.377614558E0
6.307715917E0,2.070344696E0,-6.923103333E0,2.939886475E-1,7.232020204E0
6.317720917E0,2.224673767E0,-6.963519287E0,8.416996765E-1,7.358548266E0
6.327725917E0,2.645448761E0,-7.189549255E0,1.386566620E0,7.785279997E0
6.337730917E0,3.128344574E0,-8.012687531E0,1.724264374E0,8.772843830E0
6.347735917E0,3.264261932E0,-8.900042267E0,1.658251648E0,9.623718452E0
6.357739917E0,3.347189484E0,-9.574988708E0,1.022972717E0,1.019463385E1
6.367744917E0,3.410956879E0,-1.014036301E1,-8.307723999E-2,1.069899484E1
6.377749917E0,3.486998749E0,-1.059736267E1,-1.246907043E0,1.122577539E1
6.387754917E0,3.706741791E0,-1.079315552E1,-1.908680878E0,1.157044526E1
6.397759917E0,3.905678101E0,-1.082938019E1,-1.980381775E0,1.168125458E1
6.407764917E0,4.052822113E0,-1.078686859E1,-1.616338806E0,1.163591218E1
6.417769917E0,4.044589233E0,-1.072235275E1,-1.046473846E0,1.150750443E1
6.427774917E0,3.584745483E0,-1.080857346E1,-2.501298523E-1,1.139026889E1
6.437778917E0,2.404000854E0,-1.112336884E1,1.281485138E0,1.145210716E1
6.447783917E0,1.326092377E0,-1.123773102E1,3.255729675E0,1.177475669E1
6.457788917E0,9.705816650E-1,-1.054122940E1,4.553830261E0,1.152375443E1
6.467793917E0,7.708969116E-1,-9.771080933E0,4.871320038E0,1.094523017E1
6.477798917E0,4.261637878E-1,-9.399553528E0,4.467160492E0,1.041579305E1
6.487803917E0,2.089654541E-1,-9.222920837E0,3.914809113E0,1.002156004E1
6.497808917E0,4.538562012E-1,-9.056167603E0,3.356919250E0,9.668974297E0
6.507812917E0,1.274749146E0,-8.499175873E0,2.872376862E0,9.061540969E0
6.517817917E0,2.265538788E0,-7.543862457E0,2.400408325E0,8.234347995E0
6.527822917E0,2.951113129E0,-6.921157379E0,1.853894806E0,7.749091180E0
6.537827917E0,3.318598938E0,-6.650370483E0,1.342857513E0,7.552734126E0
6.547832917E0,3.439846802E0,-6.488407288E0,8.924441528E-1,7.397866700E0
6.557837917E0,3.326233063E0,-6.315217438E0,3.951782227E-1,7.148563737E0
6.567842917E0,3.100951538E0,-6.151757355E0,-9.265731812E-2,6.889746321E0
6.577847917E0,2.843187561E0,-6.030060425E0,-4.587959290E-1,6.682502371E0
6.587851917E0,2.640808411E0,-6.092779999E0,-5.465135193E-1,6.662920846E0
6.597856917E0,2.610870667E0,-6.223158875E0,-3.857478333E-1,6.759671102E0
6.607861917E0,2.558629303E0,-6.436165924E0,-5.658233643E-2,6.926327835E0
6.617866917E0,2.172282715E0,-6.880442047E0,2.709365845E-1,7.220297888E0
6.627871917E0,1.813778229E0,-7.619155884E0,6.270460510E-1,7.857131448E0
6.637876917E0,1.659299469E0,-8.665779419E0,1.206940155E0,8.905375467E0
6.647881917E0,1.414259033E0,-9.995314636E0,2.503244476E0,1.040060941E1
6.657885917E0,8.205935669E-1,-1.138277939E1,4.548291779E0,1.228527568E1
6.667890917E0,6.144721985E-1,-1.203452408E1,5.067861328E0,1.307251178E1
6.677895917E0,7.580236816E-1,-1.207044937E1,4.386777649E0,1.286523090E1
6.687900917E0,4.260140991E-1,-1.222567657E1,3.799698486E0,1.280961999E1
6.697905917E0,-4.909790039E-1,-1.262145355E1,3.941603394E0,1.323171899E1
6.707910917E0,-1.371897125E0,-1.278446457E1,4.891528015E0,1.375687764E1
6.717915917E0,-1.808988190E0,-1.216580109E1,6.540498962E0,1.393044439E1
6.727920917E0,-1.894161072E0,-1.105690704E1,7.471562805E0,1.347840088E1
6.737924917E0,-2.111958160E0,-1.029978149E1,6.475534058E0,1.234821475E1
6.747929917E0,-1.918260956E0,-9.591155090E0,4.538562012E0,1.078278842E1
6.757934917E0,-1.182690582E0,-8.658893738E0,2.658321991E0,9.134652352E0
6.767939917E0,-2.674937439E-1,-7.834857330E0,9.740245056E-1,7.899700376E0
6.777944917E0,5.987548828E-1,-7.468119965E0,-2.104623413E-1,7.495039534E0
6.787949917E0,1.227597198E0,-7.561675415E0,-6.759942627E-1,7.690442003E0
6.797954917E0,1.852397919E0,-8.405321045E0,-5.475613403E-1,8.624420174E0
6.807958917E0,2.661016388E0,-1.049198181E1,1.431024170E-1,1.082511750E1
6.817963917E0,3.601809998E0,-1.326376785E1,1.109193420E0,1.378879556E1
6.827968917E0,4.865332489E0,-1.532303558E1,1.425186310E0,1.613995154E1
6.837973917E0,5.567971344E0,-1.517499344E1,1.002914429E0,1.619532550E1
6.847978917E0,4.996160431E0,-1.265678009E1,5.885760498E-1,1.361991641E1
6.857983917E0,4.306993561E0,-9.899364166E0,4.769082642E-1,1.080625032E1
6.867988917E0,3.945345612E0,-7.875123596E0,9.276210022E-1,8.856850703E0
6.877993917E0,3.187022552E0,-6.913523254E0,1.173409882E0,7.702649368E0
6.887997917E0,2.118095398E0,-7.413184204E0,6.017486572E-1,7.733287115E0
6.898002917E0,1.502425690E0,-8.034542084E0,1.555265808E-1,8.175288250E0
6.908007917E0,1.385369110E0,-7.717800751E0,1.691482544E-2,7.841172241E0
6.918012917E0,1.547931061E0,-7.090455322E0,-6.526428223E-2,7.257748044E0
6.928017917E0,1.703457642E0,-6.926396484E0,-3.634442139E-1,7.142046478E0
6.938022917E0,1.725910950E0,-7.151079254E0,-6.180647278E-1,7.382323964E0
6.948027917E0,1.899400177E0,-7.669301605E0,-6.903643799E-1,7.931110333E0
6.958031917E0,2.373913422E0,-8.475674744E0,-5.355862427E-1,8.818127915E0
6.968036917E0,3.084036713E0,-9.493558044E0,-3.264710999E-1,9.987267402E0
6.978041917E0,3.587439880E0,-1.026714935E1,-3.246748352E-1,1.088069366E1
6.988046917E0,3.769012299E0,-1.054796539E1,-4.234693909E-1,1.120911923E1
6.998051917E0,3.683390350E0,-1.041504181E1,-6.463558960E-1,1.106608496E1
7.008056917E0,3.343746643E0,-1.015488281E1,-1.012494507E0,1.073906102E1
7.018061917E0,2.791395264E0,-9.899513855E0,-1.300495605E0,1.036742740E1
7.028066917E0,2.362986145E0,-9.624835052E0,-1.275347900E0,9.992380376E0
7.038070917E0,2.138303375E0,-9.366622009E0,-9.786648560E-1,9.657315056E0
7.048075917E0,1.856738892E0,-9.267228699E0,-6.210585022E-1,9.471785509E0
7.058080917E0,1.638043671E0,-9.317973175E0,-3.707789612E-1,9.468119570E0
7.068085917E0,1.540147247E0,-9.356443176E0,-3.067121887E-1,9.487315470E0
7.078090917E0,1.614542542E0,-9.340725861E0,-4.652325439E-1,9.490645317E0
7.088095917E0,1.739382935E0,-9.258546753E0,-6.560856628E-1,9.443335712E0
7.098100917E0,1.791624298E0,-9.140442352E0,-7.330256653E-1,9.343175619E0
7.108104917E0,1.903591461E0,-8.997938690E0,-6.655160522E-1,9.221142702E0
7.118109917E0,2.118993530E0,-8.932225342E0,-5.327421570E-1,9.195574878E0
7.128114917E0,2.366728363E0,-9.049880676E0,-5.135820007E-1,9.368324817E0
7.138119917E0,2.567460938E0,-9.309590607E0,-5.953120422E-1,9.675470498E0
7.148124917E0,2.714305573E0,-9.614506531E0,-5.767506409E-1,1.000693919E1
7.158130750E0,2.800975342E0,-9.856702881E0,-4.218228149E-1,1.025563206E1
7.168135750E0,2.792443085E0,-1.007988876E1,-2.871029663E-1,1.046347571E1
7.178140750E0,2.536325684E0,-1.022029678E1,-2.956352234E-1,1.053445843E1
7.188144750E0,2.161804504E0,-1.021161484E1,-4.291575623E-1,1.044675320E1
7.198149750E0,1.829645233E0,-1.012135254E1,-4.900808716E-1,1.029706551E1
7.208154750E0,1.558708649E0,-1.008363098E1,-4.698728943E-1,1.021420418E1
7.218159750E0,1.350491638E0,-1.012539413E1,-3.231779480E-1,1.022017016E1
7.228164750E0,1.117725677E0,-1.017254608E1,-5.957611084E-2,1.023394126E1
7.238169750E0,9.553134155E-1,-1.006746460E1,1.706451416E-1,1.011412809E1
7.248174750E0,1.017583923E0,-9.818232880E0,2.037263489E-1,9.872926534E0
7.258178750E0,1.310225372E0,-9.711953888E0,4.120930481E-1,9.808596206E0
7.268183750E0,1.850002899E0,-9.890083466E0,6.740483093E-1,1.008417586E1
7.278188750E0,2.232906647E0,-1.015114059E1,6.307882690E-1,1.041294489E1
7.288193750E0,2.317031708E0,-1.027643005E1,1.890568542E-1,1.053609952E1
7.298198750E0,2.222578125E0,-1.022942780E1,-3.920347595E-1,1.047543497E1
7.308203750E0,1.960173798E0,-1.021565643E1,-8.393046570E-1,1.043582052E1
7.318208750E0,1.444945221E0,-1.023556503E1,-9.972262573E-1,1.038504302E1
7.328213750E0,8.922944641E-1,-1.018317398E1,-7.488926697E-1,1.024958838E1
7.338217750E0,6.068380737E-1,-1.000684067E1,-3.022215271E-1,1.002977819E1
7.348222750E0,4.074526978E-1,-9.908195801E0,1.097218323E-1,9.917177048E0
7.358227750E0,1.648072815E-1,-9.936636658E0,4.975653076E-1,9.950451283E0
7.368232750E0,2.532733154E-1,-9.894873505E0,8.080197144E-1,9.931040474E0
7.378237750E0,9.595046997E-1,-9.659413147E0,8.619076538E-1,9.745142196E0
7.388242750E0,1.595831451E0,-9.458830261E0,4.854405212E-1,9.604780082E0
7.398247750E0,1.974394226E0,-9.427545319E0,-2.495310974E-1,9.635305344E0
7.408252750E0,2.161804504E0,-9.785151672E0,-8.342152405E-1,1.005576984E1
7.418256750E0,2.028880920E0,-1.082878143E1,-9.500743103E-1,1.105809687E1
7.428261750E0,1.741029510E0,-1.200144287E1,-7.873626709E-1,1.215260280E1
7.438266750E0,1.713636475E0,-1.275841873E1,-4.519102478E-1,1.288091695E1
7.448271750E0,1.894610138E0,-1.293999115E1,1.116677856E-1,1.307843218E1
7.458276750E0,2.195933533E0,-1.220127731E1,7.635621643E-1,1.242080188E1
7.468281750E0,2.297123108E0,-1.033885025E1,6.563850403E-1,1.061128835E1
7.478286750E0,2.032024384E0,-8.719817047E0,-3.742218018E-2,8.953531865E0
7.488290750E0,1.956431580E0,-7.724536743E0,-5.116360474E-1,7.984852151E0
7.498295750E0,2.148931274E0,-7.239096222E0,-5.873785400E-1,7.574129209E0
7.508300750E0,2.450703735E0,-7.250771942E0,-3.444337463E-1,7.661480089E0
7.518305750E0,2.812950439E0,-7.502398682E0,8.322692871E-2,8.012839876E0
7.528310750E0,3.339405670E0,-8.290360107E0,5.138813782E-1,8.952417272E0
7.538315750E0,3.827390900E0,-9.377848663E0,8.967851257E-1,1.016844089E1
7.548320750E0,4.246070251E0,-1.018197647E1,1.143023071E0,1.109090885E1
7.558325750E0,4.617597656E0,-1.070813232E1,1.017733612E0,1.170564341E1
7.568329750E0,4.909041595E0,-1.115929413E1,4.619393921E-1,1.220007880E1
7.578334750E0,5.023553467E0,-1.138083344E1,-2.808160400E-1,1.244340455E1
7.588339750E0,4.799918518E0,-1.128443390E1,-8.792715454E-1,1.229433954E1
7.598344750E0,4.289479980E0,-1.083910995E1,-1.071471863E0,1.170615202E1
7.608349750E0,3.728596344E0,-1.014784744E1,-8.205935669E-1,1.084226048E1
7.618354750E0,3.253933411E0,-9.582922211E0,-3.382965088E-1,1.012595305E1
7.628359750E0,2.947071533E0,-9.313183136E0,3.737727356E-1,9.775495732E0
7.638363750E0,2.541265411E0,-9.394913177E0,1.462458801E0,9.841809247E0
7.648368750E0,1.901645508E0,-9.695488129E0,2.881507874E0,1.029183333E1
7.658373750E0,1.330283661E0,-9.785001984E0,3.886368256E0,1.061224654E1
7.668378750E0,9.891430664E-1,-9.498497772E0,4.004472656E0,1.035546547E1
7.678383750E0,7.578739929E-1,-9.256600800E0,3.530857544E0,9.936095126E0
7.688388750E0,6.081852722E-1,-9.086853790E0,2.901715851E0,9.558282064E0
7.698393750E0,6.170169067E-1,-8.907975769E0,2.388133850E0,9.243155600E0
7.708398750E0,8.170010376E-1,-8.702303467E0,2.032024384E0,8.973667000E0
7.718402750E0,1.021924896E0,-8.471034393E0,1.822460175E0,8.724913482E0
7.728407750E0,1.150208130E0,-8.286767578E0,1.670226746E0,8.531304298E0
7.738412750E0,1.498833160E0,-8.024662628E0,1.534309387E0,8.306372038E0
7.748417750E0,2.181713104E0,-7.388335876E0,1.372795258E0,7.825084403E0
7.758422750E0,2.694396973E0,-6.769672394E0,1.161584473E0,7.378178492E0
7.768427750E0,2.949316864E0,-6.409371643E0,8.542735291E-1,7.106919029E0
7.778432750E0,2.953508148E0,-6.425987091E0,4.846920776E-1,7.088825494E0
7.788436750E0,2.878813477E0,-6.597081299E0,1.907034302E-1,7.200376136E0
7.798441750E0,2.750081177E0,-6.808890839E0,2.439926147E-1,7.347344645E0
7.808446750E0,2.476001129E0,-6.972799988E0,4.282594299E-1,7.411742535E0
7.818451750E0,1.956281891E0,-7.158713379E0,6.036946106E-1,7.445714422E0
7.828456750E0,1.302591248E0,-7.488327942E0,8.240364075E-1,7.645314599E0
7.838461750E0,7.689509583E-1,-7.852969666E0,1.094972992E0,7.966139843E0
7.848466750E0,4.141886902E-1,-8.266110535E0,1.432221680E0,8.399487757E0
7.858471750E0,1.706451416E-1,-8.803493042E0,1.934876404E0,9.015229126E0
7.868475750E0,-1.475930786E-1,-9.626631317E0,2.837649078E0,1.003723401E1
7.878480750E0,-4.555027771E-1,-1.071771240E1,3.735182648E0,1.135906824E1
7.888485750E0,-4.067042542E-1,-1.163335831E1,3.858226776E0,1.226321115E1
7.898490750E0,-2.016307068E-1,-1.222867035E1,3.703298950E0,1.277871107E1
7.908495750E0,-2.564167786E-1,-1.253433472E1,3.763024750E0,1.308952450E1
7.918500750E0,-5.162763977E-1,-1.242640915E1,4.236340485E0,1.313882667E1
7.928505750E0,-7.472460938E-1,-1.201326828E1,4.986879730E0,1.302865921E1
7.938510750E0,-5.650749207E-1,-1.137080429E1,5.597609711E0,1.268651782E1
7.948514750E0,-3.258723450E-1,-1.093341385E1,5.560187531E0,1.227034704E1
7.958519750E0,-2.032772827E-1,-1.049647247E1,4.848118286E0,1.156380158E1
7.968524750E0,3.517684937E-2,-9.759554901E0,3.764072571E0,1.046032464E1
7.978529750E0,3.972738647E-1,-8.899443512E0,2.585573273E0,9.275942566E0
7.988534750E0,8.159532166E-1,-8.136180725E0,1.532662811E0,8.319391308E0
7.998539750E0,1.224753113E0,-7.890242157E0,8.219407654E-1,8.026925196E0
8.008544750E0,1.651815033E0,-8.634344788E0,6.261479187E-1,8.813198286E0
8.018548750E0,2.226619720E0,-1.077189972E1,1.024768982E0,1.104725352E1
8.028553750E0,3.107088776E0,-1.364667160E1,1.820963287E0,1.411387805E1
8.038558750E0,4.148622894E0,-1.565055450E1,2.393372955E0,1.636701446E1
8.048563750E0,5.231471100E0,-1.544892380E1,2.326911163E0,1.647580201E1
8.058568750E0,5.365592194E0,-1.280137939E1,2.111808472E0,1.404010787E1
8.068573750E0,4.408332825E0,-9.732760620E0,1.912572784E0,1.085439829E1
8.078578750E0,3.655248871E0,-7.927814026E0,1.255738678E0,8.819748248E0
8.088583750E0,2.866089935E0,-7.173233185E0,5.605842590E-1,7.744933864E0
8.098587750E0,1.940863953E0,-6.881489868E0,2.142045593E-1,7.153162887E0
8.108592750E0,1.193019104E0,-6.774163055E0,1.190025330E-1,6.879443385E0
8.118597750E0,7.530839539E-1,-6.596033478E0,-4.760101318E-2,6.639055576E0
8.128602750E0,5.590873718E-1,-6.322701874E0,-3.930825806E-1,6.359532340E0
8.138607750E0,6.477030945E-1,-5.905968475E0,-8.334667969E-1,5.999554136E0
8.148612750E0,8.354127502E-1,-5.586383057E0,-1.302291870E0,5.796684762E0
8.158617750E0,1.097368011E0,-6.016887817E0,-1.765728149E0,6.365921100E0
8.168621750E0,1.394200745E0,-7.429649963E0,-1.959125977E0,7.809076058E0
8.178626750E0,1.566941528E0,-9.063202972E0,-2.017354889E0,9.416298350E0
8.188631750E0,2.152224426E0,-1.092802505E1,-1.915865936E0,1.130151954E1
8.198636750E0,3.190315704E0,-1.183783310E1,-1.594633942E0,1.236346489E1
8.208641750E0,3.885619812E0,-1.172122559E1,-1.027164001E0,1.239113540E1
8.218646750E0,4.077071686E0,-1.125269989E1,-7.379653931E-2,1.196875993E1
8.228651750E0,3.462898865E0,-1.057745407E1,6.746470642E-1,1.115030725E1
8.238656750E0,2.515369263E0,-9.823322296E0,6.849755859E-1,1.016336239E1
8.248660750E0,2.333048401E0,-9.196276245E0,1.489402771E-1,9.488772040E0
8.258665750E0,2.261946259E0,-9.070687408E0,-3.844006348E-1,9.356363331E0
8.268670750E0,2.047741699E0,-9.328002319E0,-7.508386230E-1,9.579594562E0
8.278675750E0,1.919757843E0,-9.645641785E0,-9.563612366E-1,9.881219683E0
8.288680750E0,2.016157379E0,-9.744436340E0,-9.523196411E-1,9.996291456E0
8.298685750E0,2.258653107E0,-9.640851746E0,-7.472460938E-1,9.930051005E0
8.308690750E0,2.404000854E0,-9.457932129E0,-4.620890808E-1,9.769607289E0
8.318694750E0,2.400408325E0,-9.284143524E0,-2.712359619E-1,9.593271082E0
8.328699750E0,2.437231750E0,-9.128916321E0,-2.847079468E-1,9.452950355E0
8.338704750E0,2.583178253E0,-9.025780792E0,-3.793112183E-1,9.395818527E0
8.348709750E0,2.808759155E0,-8.980275421E0,-3.279679871E-1,9.414990050E0
8.358714750E0,3.229234772E0,-9.046886902E0,-1.197509766E-1,9.606688302E0
8.368719750E0,3.701951752E0,-9.301806793E0,-1.481918335E-2,1.001140729E1
8.378724750E0,3.833827515E0,-9.629176025E0,-2.627037048E-1,1.036765536E1
8.388729750E0,3.546125793E0,-9.921368408E0,-4.692741394E-1,1.054650546E1
8.398733750E0,2.930007019E0,-1.005788452E1,-2.902464294E-1,1.047999166E1
8.408738750E0,2.327509918E0,-9.948312378E0,-1.002914429E-2,1.021696247E1
8.418743750E0,1.847308502E0,-9.800120544E0,1.157093811E-1,9.973379570E0
8.428748750E0,1.460662537E0,-9.767787781E0,-5.658233643E-2,9.876558851E0
8.438753750E0,1.228794708E0,-9.805060272E0,-4.312532043E-1,9.891163870E0
8.448758750E0,1.071771240E0,-9.906549225E0,-5.685177612E-1,9.980562288E0
8.458763750E0,9.398954773E-1,-9.993668060E0,-3.159928894E-1,1.004274147E1
8.468767750E0,1.002615051E0,-9.985135803E0,1.046324158E-1,1.003589168E1
8.478772750E0,1.356628876E0,-9.936936035E0,4.508624268E-1,1.003924383E1
8.488777750E0,1.699715424E0,-9.959389343E0,6.313870239E-1,1.012309825E1
8.498782750E0,2.020498352E0,-1.003767654E1,6.357279968E-1,1.025872868E1
8.508787750E0,2.357148285E0,-1.007629623E1,3.845503235E-1,1.035547067E1
8.518792750E0,2.402054901E0,-1.017224670E1,-7.409591675E-2,1.045227061E1
8.528797750E0,2.126477966E0,-1.029798523E1,-3.008743286E-1,1.051955007E1
8.538802750E0,1.594633942E0,-1.048000671E1,-3.240760803E-1,1.060558454E1
8.548806750E0,9.874964905E-1,-1.058598633E1,-4.152365112E-1,1.064005062E1
8.558811750E0,5.840853882E-1,-1.050545380E1,-2.384541321E-1,1.052438006E1
8.568816750E0,2.212399292E-1,-1.034423904E1,2.573149109E-1,1.034980384E1
8.578821750E0,-6.256988525E-2,-1.016072067E1,4.965174866E-1,1.017303736E1
8.588826750E0,-1.698966980E-1,-1.007449997E1,3.408412170E-1,1.008169565E1
8.598831750E0,-1.797761536E-1,-1.017988083E1,-1.332229614E-2,1.018147684E1
8.608836750E0,1.445993042E-1,-1.049452652E1,-6.634204102E-1,1.051646911E1
8.618840750E0,9.415420532E-1,-1.114851654E1,-1.322350159E0,1.126607884E1
8.628845750E0,1.617536316E0,-1.211550568E1,-1.431024170E0,1.230649145E1
8.638850750E0,2.032623138E0,-1.266501297E1,-8.939410400E-1,1.285819742E1
8.648855750E0,2.489772491E0,-1.236788086E1,-2.436932373E-1,1.261835292E1
8.658860750E0,3.108885040E0,-1.152468430E1,2.324665833E-1,1.193890929E1
8.668865750E0,3.682043152E0,-1.068403244E1,5.873785400E-1,1.131596238E1
8.678870750E0,4.097429352E0,-9.697883148E0,7.673043823E-1,1.055588087E1
8.688875750E0,4.209546204E0,-8.458011475E0,6.593788147E-1,9.470639776E0
8.698879750E0,3.978726196E0,-7.491022339E0,2.269281006E-1,8.485114860E0
8.708884750E0,3.564836884E0,-6.948849792E0,-1.901046753E-1,7.812215770E0
8.718889750E0,3.168461151E0,-6.835685120E0,-2.821632385E-1,7.539585746E0
8.728894750E0,2.991529083E0,-7.016658783E0,-6.586303711E-2,7.628045928E0
8.738899750E0,3.094365234E0,-7.323520660E0,2.918930054E-1,7.955768511E0
8.748904750E0,3.331023102E0,-7.993976440E0,6.412664795E-1,8.683927506E0
8.758909750E0,3.485052795E0,-8.853189697E0,9.095086670E-1,9.557811822E0
8.768914750E0,3.540437622E0,-9.444011078E0,8.958869934E-1,1.012554479E1
8.778918750E0,3.576961670E0,-9.991572418E0,4.569996643E-1,1.062238311E1
8.788923750E0,3.535198517E0,-1.058868073E1,-3.064128113E-1,1.116743824E1
8.798928750E0,3.525319061E0,-1.104283630E1,-9.942324829E-1,1.163445772E1
8.808933750E0,3.439098358E0,-1.122291183E1,-1.282083893E0,1.180783158E1
8.818938750E0,3.403173065E0,-1.109986771E1,-1.069226532E0,1.165898346E1
8.828943750E0,3.470383301E0,-1.092518097E1,-6.682104492E-1,1.148258005E1
8.838948750E0,3.482358398E0,-1.085542603E1,-1.285826111E-1,1.140103626E1
8.848952750E0,3.229384460E0,-1.088716003E1,5.923182678E-1,1.137145631E1
8.858957750E0,2.675386505E0,-1.085916824E1,1.601369934E0,1.129794732E1
8.868962750E0,2.011367340E0,-1.059302170E1,2.728675690E0,1.112220204E1
8.878967750E0,1.555116119E0,-9.978100433E0,3.520678711E0,1.069467405E1
8.888972750E0,1.176703033E0,-9.455986176E0,3.758683777E0,1.024343733E1
8.898977750E0,7.583230591E-1,-9.028475189E0,3.477268982E0,9.704628673E0
8.908982750E0,6.457571411E-1,-8.783135376E0,3.119512939E0,9.343009702E0
8.918987750E0,7.806266785E-1,-8.684191132E0,2.854563904E0,9.174589293E0
8.928991750E0,1.223705292E0,-8.524922333E0,2.628683624E0,9.004539578E0
8.938996750E0,1.847907257E0,-8.274642792E0,2.380649414E0,8.806359418E0
8.949001750E0,2.368374939E0,-7.999664612E0,2.053729248E0,8.591951907E0
8.959006750E0,2.724484406E0,-7.754624176E0,1.551673279E0,8.364490502E0
8.969011750E0,2.836900635E0,-7.630232849E0,9.903405762E-1,8.200562968E0
8.979016750E0,2.840642853E0,-7.493567047E0,4.605921936E-1,8.027137975E0
8.989021750E0,2.811453552E0,-7.277865601E0,-3.592529297E-3,7.802026127E0
8.999026750E0,2.799777832E0,-6.944808197E0,-3.534150696E-1,7.496267005E0
9.009030750E0,2.788551178E0,-6.636150055E0,-5.273533630E-1,7.217520820E0
9.019035750E0,2.780467987E0,-6.442901917E0,-4.249662781E-1,7.030119748E0
9.029040750E0,2.767445068E0,-6.282884674E0,-2.844085693E-2,6.865435231E0
9.039045750E0,2.332150269E0,-6.190077667E0,4.394860840E-1,6.629414335E0
9.049050750E0,1.474882965E0,-6.398294678E0,8.367599487E-1,6.619185883E0
9.059055750E0,8.801696777E-1,-6.873556366E0,1.391656036E0,7.068039495E0
9.069060750E0,5.522016907E-1,-7.454647980E0,2.115251312E0,7.768590047E0
9.079064750E0,2.052232361E-1,-8.279283142E0,3.325783997E0,8.924656022E0
9.089069750E0,-8.457412720E-2,-9.346863098E0,4.427642670E0,1.034287301E1
9.099074750E0,2.321672058E-1,-1.019559814E1,4.108656006E0,1.099477955E1
9.109079750E0,7.056326294E-1,-1.112262039E1,3.233426056E0,1.160455281E1
9.119084750E0,2.308200073E-1,-1.232941086E1,2.887495422E0,1.266512060E1
9.129089750E0,-1.334175568E0,-1.333696564E1,3.464844818E0,1.384412606E1
9.139094750E0,-3.066373444E0,-1.352138214E1,5.113815765E0,1.477773774E1
9.149099750E0,-4.160897369E0,-1.309506866E1,7.549101563E0,1.567746232E1
9.159106750E0,-3.877087555E0,-1.248254242E1,8.300389252E0,1.548360859E1
9.169111750E0,-3.285218353E0,-1.175685150E1,6.883585510E0,1.401427723E1
9.179116750E0,-2.241738281E0,-1.054407349E1,4.679868164E0,1.175176762E1
9.189121750E0,-1.007704468E0,-9.175170135E0,2.004631348E0,9.445515452E0
9.199126750E0,1.618135071E-1,-7.852221222E0,-4.153862000E-1,7.864865379E0
9.209131750E0,1.511706390E0,-7.101382599E0,-1.869312744E0,7.497280918E0
9.219136750E0,2.901715851E0,-8.592431946E0,-2.420167236E0,9.386535627E0
9.229141750E0,4.317322083E0,-1.215322723E1,-1.944755859E0,1.304309310E1
9.239145750E0,5.949527893E0,-1.572150696E1,-6.072871399E-1,1.682056660E1
9.249150750E0,7.010072479E0,-1.713396973E1,2.968327332E-1,1.851491681E1
9.259155750E0,7.152576141E0,-1.527498550E1,1.419647827E0,1.692630874E1
9.269160750E0,5.892496490E0,-1.170131699E1,2.227218475E0,1.328919998E1
9.279165750E0,4.485422516E0,-8.934919739E0,2.170486450E0,1.023048471E1
9.289170750E0,3.263962555E0,-7.048392792E0,1.851649475E0,7.985104776E0
9.299175750E0,2.083217926E0,-5.955066376E0,1.339414673E0,6.449546041E0
9.309179750E0,1.132544861E0,-5.519771576E0,4.834945679E-1,5.655466657E0
9.319184750E0,8.219407654E-1,-5.247787170E0,-5.598358154E-1,5.341186474E0
9.329189750E0,9.005273438E-1,-4.984484711E0,-1.506467285E0,5.284456548E0
9.339194750E0,1.372795258E0,-5.035528564E0,-2.204914856E0,5.665930132E0
9.349199750E0,1.861229553E0,-5.961353302E0,-2.373614044E0,6.681014315E0
9.359204750E0,2.248324585E0,-7.545359344E0,-2.050436096E0,8.135828124E0
9.369209750E0,2.749033356E0,-9.189240875E0,-1.643133087E0,9.731352352E0
9.379214750E0,3.476520538E0,-1.056278458E1,-1.140628052E0,1.117853503E1
9.389218750E0,4.170477448E0,-1.147034729E1,-3.845503235E-1,1.221104533E1
9.399223750E0,4.629423065E0,-1.172421936E1,5.694158936E-1,1.261796782E1
9.409228750E0,4.682712250E0,-1.137424713E1,1.245260468E0,1.236333149E1
9.419233750E0,3.644022217E0,-1.086770050E1,6.779402161E-1,1.148239587E1
9.429238750E0,2.681673431E0,-1.015129028E1,-4.670288086E-1,1.050990879E1
9.439243750E0,2.431842957E0,-9.384734344E0,-1.112785950E0,9.758349832E0
9.449248750E0,2.069446564E0,-9.001830597E0,-1.270557861E0,9.323619493E0
9.459253750E0,1.610351257E0,-9.040001221E0,-1.189127197E0,9.258988969E0
9.469257750E0,1.288370819E0,-9.373208313E0,-9.862989807E-1,9.512608429E0
9.479262750E0,1.272354126E0,-9.712103577E0,-7.048841858E-1,9.820422731E0
9.489267750E0,1.532064056E0,-9.893226929E0,-3.656895447E-1,1.001782852E1
9.499272750E0,1.799857178E0,-9.835147705E0,-8.083190918E-3,9.998483964E0
9.509277750E0,1.913620605E0,-9.676028595E0,2.395019531E-2,9.863470323E0
9.519282750E0,1.914668427E0,-9.475296021E0,-3.682342529E-1,9.673819635E0
9.529287750E0,2.014361115E0,-9.332792358E0,-7.472460938E-1,9.576901411E0
9.539292750E0,2.189197540E0,-9.393865356E0,-8.851094055E-1,9.686109171E0
9.549296750E0,2.386487274E0,-9.604327698E0,-7.270381165E-1,9.923054795E0
9.559301750E0,2.691253510E0,-9.788893890E0,-3.546125793E-1,1.015829903E1
9.569306750E0,3.018173676E0,-9.730814667E0,3.682342529E-2,1.018820310E1
9.579311750E0,3.139421539E0,-9.463620300E0,1.936972046E-1,9.972642348E0
9.589316750E0,2.940784607E0,-9.214987335E0,1.451980591E-2,9.672870128E0
9.599321750E0,2.580483856E0,-9.193881226E0,-4.273612976E-1,9.558712602E0
9.609326750E0,2.229763184E0,-9.444011078E0,-6.486012268E-1,9.725321210E0
9.619330750E0,1.966760101E0,-9.885892181E0,-3.597019958E-1,1.008604953E1
9.629335750E0,1.813478851E0,-1.022044647E1,3.936813354E-2,1.038016288E1
9.639340750E0,1.626068573E0,-1.030262558E1,2.761756897E-1,1.043381358E1
9.649345750E0,1.414408722E0,-1.017703674E1,3.041674805E-1,1.027935537E1
9.659350750E0,1.312770081E0,-9.932295685E0,2.688409424E-1,1.002228209E1
9.669355750E0,1.346300354E0,-9.708960114E0,3.254232788E-1,9.807259120E0
9.679360750E0,1.670077057E0,-9.546398163E0,3.363505554E-1,9.697216454E0
9.689365750E0,1.865121460E0,-9.518705750E0,3.119512939E-1,9.704728271E0
9.699369750E0,1.894460449E0,-9.650282135E0,2.327659607E-1,9.837230590E0
9.709374750E0,1.741777954E0,-9.736951904E0,-9.475296021E-2,9.891966486E0
9.719379750E0,1.311273193E0,-9.856104126E0,-9.741741943E-1,9.990557607E0
9.729384750E0,8.901988220E-1,-1.002136047E1,-1.455722809E0,1.016559140E1
9.739389750E0,5.451663208E-1,-1.009919861E1,-8.439450073E-1,1.014905227E1
9.749394750E0,5.358856201E-2,-1.012659164E1,9.460327148E-2,1.012717531E1
9.759399750E0,-1.691482544E-1,-1.010189301E1,5.403762817E-1,1.011774975E1
9.769403750E0,-1.088237000E-1,-1.004007156E1,5.483097839E-1,1.005562147E1
9.779408750E0,4.435276794E-1,-9.852661285E0,3.558100891E-1,9.869055275E0
9.789413750E0,1.269959106E0,-9.565408630E0,1.092727661E-2,9.649350123E0
9.799418750E0,1.702858887E0,-9.425299988E0,-4.061054993E-1,9.586497271E0
9.809423750E0,2.130369873E0,-9.548793182E0,-1.076112213E0,9.842557825E0
9.819428750E0,2.336790619E0,-1.028391449E1,-1.585203552E0,1.066453740E1
9.829433750E0,2.398911438E0,-1.136631363E1,-1.450932770E0,1.170696662E1
9.839438750E0,2.332749023E0,-1.223046661E1,-1.065184937E0,1.249642551E1
9.849442750E0,2.271077271E0,-1.264824783E1,-5.909710693E-1,1.286410557E1
9.859447750E0,2.587070160E0,-1.260019775E1,6.541397095E-2,1.286321089E1
9.869452750E0,3.065625000E0,-1.161120438E1,5.504054260E-1,1.202169164E1
9.879457750E0,2.920277252E0,-9.977801056E0,2.757266235E-1,1.040002684E1
9.889462750E0,2.749781799E0,-8.619525604E0,-2.339634705E-1,9.050539238E0
9.899467750E0,2.750081177E0,-7.524402924E0,-4.438270569E-1,8.023501000E0
9.909472750E0,2.872526550E0,-6.733298035E0,-2.255809021E-1,7.323905922E0
9.919477750E0,3.126697998E0,-6.402336273E0,3.353027344E-1,7.132922126E0
9.929481750E0,3.428470459E0,-6.595285034E0,8.301736450E-1,7.479397212E0
9.939486750E0,3.589086456E0,-7.260950775E0,9.807604980E-1,8.158727775E0
9.949491750E0,3.521876221E0,-8.489745483E0,7.797285461E-1,9.224281386E0
9.959496750E0,3.422482910E0,-9.556576996E0,3.829037476E-1,1.015815773E1
9.969501750E0,3.401376801E0,-1.019395157E1,-7.140151978E-2,1.074667906E1
9.979506750E0,3.550466766E0,-1.071187454E1,-5.590873718E-1,1.129878972E1
9.989511750E0,4.116888885E0,-1.119492004E1,-9.021739197E-1,1.196197838E1
9.999515750E0,4.507726135E0,-1.150507507E1,-9.978250122E-1,1.239685452E1
1.000952075E1,4.203858032E0,-1.152318741E1,-9.336085510E-1,1.230154036E1
1.001952575E1,3.490591278E0,-1.132095795E1,-6.215075684E-1,1.186316096E1
1.002953075E1,3.122806091E0,-1.099194214E1,-2.026785278E-1,1.142872646E1
1.003953575E1,3.251388702E0,-1.067624863E1,2.631527710E-1,1.116347001E1
1.004954075E1,3.363206177E0,-1.044797333E1,8.484356689E-1,1.100868500E1
1.005954575E1,3.074157257E0,-1.028690826E1,1.774410095E0,1.088207038E1
1.006955075E1,2.392624512E0,-1.009141479E1,2.755619659E0,1.073101786E1
1.007955475E1,1.709744568E0,-9.865684204E0,3.275338898E0,1.053483726E1
1.008955975E1,1.278790741E0,-9.685009918E0,3.242407379E0,1.029310101E1
1.009956475E1,1.033600616E0,-9.481133881E0,3.070415039E0,1.001936517E1
1.010956975E1,7.580236816E-1,-9.416917419E0,2.921624451E0,9.888823136E0
1.011957475E1,5.852828979E-1,-9.447902985E0,2.870430908E0,9.891653071E0
1.012957975E1,6.259982300E-1,-9.378746796E0,2.856509857E0,9.824073178E0
1.013958475E1,1.249302063E0,-9.119485931E0,2.692900085E0,9.590489569E0
1.014958875E1,2.275717621E0,-8.366252289E0,2.283202057E0,8.965828444E0
1.015959450E1,2.988235931E0,-7.664212189E0,1.752854919E0,8.410838414E0
1.016959950E1,3.262615356E0,-7.159162445E0,1.053808594E0,7.937806903E0
1.017960450E1,3.185974731E0,-6.848408661E0,3.420387268E-1,7.560960697E0
1.018960950E1,3.020419006E0,-6.566245422E0,-3.257226562E-1,7.234957164E0
1.019961450E1,2.744991760E0,-6.259533234E0,-7.632627869E-1,6.877449102E0
1.020961950E1,2.467468872E0,-6.127507782E0,-8.891510010E-1,6.665233961E0
1.021962450E1,2.323468323E0,-6.229595490E0,-7.309300232E-1,6.688843226E0
1.022962850E1,2.243983612E0,-6.370003510E0,-3.034190369E-1,6.760508137E0
1.023963350E1,1.855691071E0,-6.487209778E0,1.794767761E-1,6.749791994E0
1.024963850E1,1.292562103E0,-6.738686829E0,6.433621216E-1,6.891627659E0
1.025964350E1,8.973838806E-1,-7.480544128E0,1.322200470E0,7.649317118E0
1.026964850E1,5.303471375E-1,-8.522826691E0,2.574346619E0,8.918918286E0
1.027965350E1,2.320175171E-1,-9.439520416E0,3.967349854E0,1.024198431E1
1.028965850E1,2.624043274E-1,-1.006536896E1,4.156257019E0,1.089288670E1
1.029966350E1,3.197351074E-1,-1.050246002E1,3.762875061E0,1.116078518E1
1.030966750E1,-1.139131165E-1,-1.095347214E1,3.483705597E0,1.149468280E1
1.031967250E1,-1.047821045E0,-1.175520493E1,3.824097748E0,1.240590566E1
1.032967750E1,-2.076481934E0,-1.245335312E1,4.986280975E0,1.357426901E1
1.033968250E1,-2.942131805E0,-1.222896973E1,6.256838837E0,1.404819819E1
1.034968750E1,-3.010090485E0,-1.129072083E1,6.625522156E0,1.343274229E1
1.035969250E1,-2.889591064E0,-1.088057373E1,5.797144775E0,1.266268174E1
1.036969750E1,-2.406246185E0,-1.066996170E1,4.233346710E0,1.172856887E1
1.037970250E1,-1.040935364E0,-9.839039612E0,2.577490082E0,1.022417244E1
1.038970650E1,4.721182251E-1,-8.761580200E0,1.116079102E0,8.844988173E0
1.039971150E1,1.173409882E0,-7.951614532E0,8.173004150E-2,8.038143083E0
1.040971650E1,1.418001251E0,-7.378306732E0,-1.963916016E-1,7.515896982E0
1.041972150E1,1.848356323E0,-7.799231415E0,2.508782959E-1,8.019187719E0
1.042972650E1,2.700234833E0,-1.021580612E1,1.118923187E0,1.062572124E1
1.043973150E1,3.954925690E0,-1.383542908E1,1.767524414E0,1.449774733E1
1.044973650E1,5.137017517E0,-1.681513275E1,1.255289612E0,1.762706415E1
1.045974150E1,5.795947266E0,-1.791265045E1,1.881587219E-1,1.882794345E1
1.046974550E1,5.525160370E0,-1.620709717E1,-1.830693054E-1,1.712398640E1
1.047975050E1,4.593497772E0,-1.217702774E1,2.365081787E-1,1.301676467E1
1.048975550E1,4.050427094E0,-8.638386383E0,1.454674988E0,9.651101402E0
1.049976050E1,3.270099792E0,-6.204447784E0,2.325114899E0,7.388835108E0
1.050976550E1,2.337688751E0,-5.291196899E0,1.412762146E0,5.954615874E0
1.051977050E1,2.010768585E0,-5.306465149E0,-3.598516846E-1,5.686058030E0
1.052977550E1,2.096240845E0,-5.348078613E0,-1.736389160E0,6.000934748E0
1.053977950E1,2.039957886E0,-5.387446747E0,-2.389780426E0,6.236750846E0
1.054978450E1,1.603315887E0,-5.692961426E0,-2.422711945E0,6.391397719E0
1.055978950E1,1.258133698E0,-6.237379303E0,-2.079625397E0,6.694224582E0
1.056979450E1,1.582958221E0,-6.993307343E0,-1.615889740E0,7.350047889E0
1.057979950E1,2.497406616E0,-8.349187775E0,-1.377734985E0,8.822932052E0
1.058980450E1,3.563639374E0,-9.892179108E0,-1.244212646E0,1.058786089E1
1.059980950E1,4.336631927E0,-1.115016312E1,-8.949888611E-1,1.199722964E1
1.060981450E1,4.775968323E0,-1.181732574E1,-3.261717224E-1,1.275011565E1
1.061981850E1,4.803511047E0,-1.167122955E1,2.456391907E-1,1.262345659E1
1.062982350E1,3.911366272E0,-1.094194611E1,1.359173584E-1,1.162081943E1
1.063982850E1,3.175945587E0,-9.905800781E0,-4.043092346E-1,1.041033071E1
1.064983350E1,2.877316589E0,-9.123078461E0,-7.512876892E-1,9.595516898E0
1.065983850E1,2.453398132E0,-8.940458221E0,-8.996292114E-1,9.314520295E0
1.066984350E1,2.112407227E0,-9.008267212E0,-9.198371887E-1,9.298238699E0
1.067984850E1,1.954186249E0,-9.038055267E0,-8.575666809E-1,9.286587507E0
1.068985350E1,1.933379517E0,-9.047485657E0,-7.926017761E-1,9.285643254E0
1.069985750E1,1.930685120E0,-8.991502075E0,-6.590794373E-1,9.220034724E0
1.070986250E1,1.967508545E0,-8.968749390E0,-4.393363953E-1,9.192528050E0
1.071986750E1,2.091450806E0,-8.949738922E0,-2.456391907E-1,9.194146609E0
1.072987250E1,2.291434937E0,-9.088799744E0,-2.546205139E-1,9.376661797E0
1.073987750E1,2.473157043E0,-9.377848663E0,-4.159849548E-1,9.707398972E0
1.074988250E1,2.656226349E0,-9.750573578E0,-5.478607178E-1,1.012073984E1
1.075988750E1,2.857557678E0,-1.006656647E1,-4.192781067E-1,1.047268783E1
1.076989150E1,3.102897491E0,-1.019844223E1,2.888992310E-2,1.066006714E1
1.077989650E1,3.306324463E0,-1.016640884E1,5.743556213E-1,1.070595790E1
1.078990150E1,3.072061615E0,-1.016206787E1,8.729846191E-1,1.065210252E1
1.079990650E1,2.552192688E0,-1.022239243E1,7.891589355E-1,1.056568816E1
1.080991150E1,2.086660767E0,-1.009171417E1,4.607418823E-1,1.031548017E1
1.081991650E1,1.595532074E0,-9.884095917E0,1.484912109E-1,1.001314757E1
1.082992150E1,1.082099762E0,-9.790540466E0,-1.595681763E-1,9.851450884E0
1.083992650E1,7.481442261E-1,-9.782906342E0,-4.360432434E-1,9.821156245E0
1.084993050E1,5.225633240E-1,-9.851613464E0,-4.640350342E-1,9.876370223E0
1.085993550E1,4.652325439E-1,-9.912237396E0,-2.194436646E-1,9.925575401E0
1.086994050E1,4.900808716E-1,-1.002031265E1,1.824705505E-1,1.003394939E1
1.087994550E1,5.896238708E-1,-1.018018021E1,3.974235535E-1,1.020498265E1
1.088995050E1,6.912625122E-1,-1.032403107E1,1.815724182E-1,1.034874050E1
1.089995550E1,6.393205261E-1,-1.039363632E1,-2.613565063E-1,1.041655960E1
1.090996050E1,5.544470215E-1,-1.039722885E1,-6.288423157E-1,1.043097416E1
1.091996550E1,8.848100281E-1,-1.022329056E1,-8.294252014E-1,1.029497473E1
1.092996950E1,1.286125488E0,-1.016371445E1,-7.698490906E-1,1.027364968E1
1.093997450E1,1.495989075E0,-1.025098297E1,-4.581971741E-1,1.036969526E1
1.094997950E1,1.701960754E0,-1.029065048E1,-1.318757629E-1,1.043127744E1
1.095998450E1,1.876497803E0,-1.019215530E1,7.125183105E-2,1.036370352E1
1.096998950E1,2.001487885E0,-1.007599686E1,2.300715637E-1,1.027543670E1
1.097999450E1,2.149829407E0,-9.920470276E0,2.252815247E-1,1.015323834E1
1.098999950E1,2.343077545E0,-9.836345215E0,-2.079176331E-1,1.011370008E1
1.100000350E1,2.491568756E0,-1.026235931E1,-9.364526367E-1,1.060192799E1
1.101000850E1,2.590812378E0,-1.131916168E1,-1.276844788E0,1.168186897E1
1.102001350E1,2.860850830E0,-1.216385513E1,-8.208929443E-1,1.252268759E1
1.103001850E1,3.140768738E0,-1.251637207E1,-1.466949463E-2,1.290442611E1
1.104002350E1,3.246748352E0,-1.237431747E1,2.401007080E-1,1.279541934E1
1.105002850E1,3.424877930E0,-1.173799072E1,7.050338745E-2,1.222764024E1
1.106003350E1,3.628454590E0,-1.097263229E1,9.535171509E-2,1.155739738E1
1.107003850E1,3.551963654E0,-1.002944366E1,2.547702026E-1,1.064288936E1
1.108004250E1,3.194207611E0,-8.927135925E0,3.350033569E-1,9.487304430E0
1.109004750E1,2.821632385E0,-7.952512665E0,3.019221497E-1,8.443649921E0
1.110005250E1,2.511477356E0,-7.205116882E0,2.477348328E-1,7.634304182E0
1.111005750E1,2.276615753E0,-6.698121185E0,2.200424194E-1,7.077868702E0
1.112006250E1,2.221230927E0,-6.460864563E0,1.917512512E-1,6.834720643E0
1.113006750E1,2.429597626E0,-6.470444641E0,1.431024170E-1,6.913036726E0
1.114007250E1,2.844534760E0,-6.768774261E0,1.875599670E-1,7.344580433E0
1.115007750E1,3.207829285E0,-7.459587708E0,3.582051086E-1,8.127971972E0
1.116008150E1,3.394491119E0,-8.199199677E0,5.629792786E-1,8.891928416E0
1.117008567E1,3.507655792E0,-8.938961334E0,6.138734436E-1,9.622136951E0
1.118009067E1,3.490142212E0,-9.716294861E0,4.047583008E-1,1.033205245E1
1.119009567E1,3.383563843E0,-1.032388138E1,-9.969268799E-2,1.086466611E1
1.120010067E1,3.384461975E0,-1.071022797E1,-5.869294739E-1,1.124757984E1
1.121010567E1,3.294199677E0,-1.074750046E1,-6.460565186E-1,1.125956956E1
1.122011067E1,3.276835785E0,-1.057640625E1,-3.863465881E-1,1.107913740E1
1.123011567E1,3.369493103E0,-1.061906754E1,-3.727249146E-2,1.114089172E1
1.124011967E1,3.284469910E0,-1.088266937E1,4.354444885E-1,1.137584490E1
1.125012467E1,2.834355927E0,-1.119327347E1,1.268162842E0,1.161598818E1
1.126012967E1,2.169288940E0,-1.123668320E1,2.389630737E0,1.169098793E1
1.127013467E1,1.735491028E0,-1.069316345E1,3.176095276E0,1.128907680E1
1.128013967E1,1.674717407E0,-1.004590942E1,3.384012909E0,1.073203233E1
1.129014467E1,1.720671844E0,-9.651479645E0,3.160827026E0,1.030061156E1
1.130014967E1,1.743574219E0,-9.421857147E0,2.846480713E0,9.995693853E0
1.131015367E1,1.753154297E0,-9.117539978E0,2.533032532E0,9.623894173E0
1.132015867E1,1.955982513E0,-8.897198181E0,2.169139252E0,9.364356260E0
1.133016367E1,2.196232910E0,-8.673413544E0,1.868713989E0,9.140220647E0
1.134016867E1,2.458487549E0,-8.481662292E0,1.603615265E0,8.975206861E0
1.135017367E1,2.811603241E0,-8.084837494E0,1.309177551E0,8.659310362E0
1.136017867E1,3.065475311E0,-7.679330750E0,9.119036865E-1,8.318703503E0
1.137018367E1,3.223845978E0,-7.327562256E0,4.825964355E-1,8.019928355E0
1.138018867E1,3.224145355E0,-7.019053802E0,1.204994202E-1,7.725072793E0
1.139019267E1,3.111878815E0,-6.757697296E0,-1.107696533E-1,7.440600273E0
1.140019767E1,2.909200287E0,-6.589746552E0,-1.188528442E-1,7.204327305E0
1.141020267E1,2.625540161E0,-6.486611023E0,6.646179199E-2,6.998142673E0
1.142020767E1,2.255958710E0,-6.409521332E0,4.132905579E-1,6.807504865E0
1.143021267E1,1.771566010E0,-6.478677521E0,7.469467163E-1,6.757931484E0
1.144021767E1,1.344055023E0,-6.825655975E0,1.109492798E0,7.044646029E0
1.145022267E1,1.124311981E0,-7.351662140E0,1.439855804E0,7.575235864E0
1.146022767E1,1.059496765E0,-8.032745819E0,1.740879822E0,8.287231223E0
1.147023167E1,1.090182953E0,-8.701105957E0,2.163002014E0,9.031961108E0
1.148023667E1,1.110989685E0,-9.282197571E0,2.650538177E0,9.716935857E0
1.149024167E1,1.227896576E0,-9.784852295E0,3.002905426E0,1.030866167E1
1.150024667E1,1.357976074E0,-1.018302429E1,3.317700806E0,1.079561121E1
1.151025167E1,1.313817902E0,-1.080303497E1,3.809877319E0,1.153025790E1
1.152025667E1,9.370513916E-1,-1.163365768E1,4.592300262E0,1.254229955E1
1.153026167E1,3.400927734E-1,-1.210068649E1,5.651647339E0,1.335976775E1
1.154026667E1,-7.688012695E-1,-1.197719330E1,6.883435822E0,1.383567503E1
1.155027067E1,-2.174078979E0,-1.165296753E1,7.432643738E0,1.399151402E1
1.156027567E1,-2.784210205E0,-1.122111557E1,6.465055847E0,1.324621486E1
1.157028067E1,-2.485581207E0,-1.052296738E1,4.606520691E0,1.175291407E1
1.158028567E1,-1.392554169E0,-9.347012787E0,2.599045258E0,9.801065830E0
1.159029067E1,-3.698808289E-1,-8.691675568E0,7.933502197E-1,8.735641967E0
1.160029567E1,3.948788452E-1,-8.570577393E0,-5.936654663E-1,8.600184000E0
1.161030067E1,1.803599396E0,-9.091943207E0,-1.354982300E0,9.367623983E0
1.162030467E1,3.426374817E0,-1.135882919E1,-1.481169891E0,1.195645889E1
1.163030967E1,4.865332489E0,-1.459225525E1,-9.801617432E-1,1.541317912E1
1.164031467E1,6.278094635E0,-1.668984329E1,-1.721420288E-2,1.783159100E1
1.165031967E1,7.093449097E0,-1.510928009E1,8.315208435E-1,1.671223480E1
1.166032467E1,6.235433350E0,-1.104508163E1,1.643731842E0,1.278969553E1
1.167032967E1,4.544549561E0,-8.981772308E0,1.758094025E0,1.021841764E1
1.168033467E1,3.475772095E0,-8.163573761E0,1.065334625E0,8.936434752E0
1.169033967E1,2.900668030E0,-7.424560547E0,3.634442139E-1,7.979352482E0
1.170034467E1,2.272873535E0,-6.918163605E0,-2.595602417E-1,7.286584473E0
1.171034867E1,1.741927643E0,-6.766678619E0,-7.036866760E-1,7.022636712E0
1.172035367E1,1.438358917E0,-6.627468109E0,-8.364605713E-1,6.833145410E0
1.173035867E1,1.256038055E0,-6.404132538E0,-7.957452393E-1,6.574477595E0
1.174036367E1,1.360820160E0,-6.455176392E0,-7.698490906E-1,6.641822143E0
1.175036867E1,1.912572784E0,-6.993606720E0,-7.366181946E-1,7.287734626E0
1.176037367E1,2.762056274E0,-8.018974457E0,-5.312452698E-1,8.497948443E0
1.177037867E1,3.563190308E0,-9.154363403E0,-2.448907471E-1,9.826426918E0
1.178038267E1,4.004173279E0,-1.027792694E1,-1.525328064E-1,1.103143019E1
1.179038767E1,4.044439545E0,-1.111109436E1,-4.921765137E-1,1.183453197E1
1.180039267E1,3.891757050E0,-1.130643814E1,-9.744735718E-1,1.199712112E1
1.181039767E1,3.791764984E0,-1.082369202E1,-1.207239532E0,1.153200841E1
1.182040267E1,3.571273499E0,-1.008303223E1,-1.209185486E0,1.076492744E1
1.183040767E1,3.021766205E0,-9.451046448E0,-1.178199921E0,9.992072108E0
1.184041267E1,2.390229492E0,-8.946745148E0,-1.181942139E0,9.335653859E0
1.185041767E1,2.090402985E0,-8.608298950E0,-1.210832062E0,8.940845024E0
1.186042167E1,2.042053528E0,-8.574768677E0,-1.297352142E0,8.909532145E0
1.187042667E1,2.110461273E0,-8.843609619E0,-1.325343933E0,9.188036484E0
1.188043167E1,2.241438904E0,-9.095835114E0,-1.225202179E0,9.447718516E0
1.189043667E1,2.311942291E0,-9.367220764E0,-1.061143341E0,9.706488922E0
1.190044167E1,2.285447388E0,-9.680668945E0,-9.210346985E-1,9.989340614E0
1.191044667E1,2.318378906E0,-9.784852295E0,-8.143066406E-1,1.008867238E1
1.192045167E1,2.477498016E0,-9.736951904E0,-7.427554321E-1,1.007461733E1
1.193045667E1,2.506088562E0,-9.720935211E0,-7.110214233E-1,1.006392631E1
1.194046067E1,2.498304749E0,-9.695338440E0,-6.587800598E-1,1.003369848E1
1.195046567E1,2.489922180E0,-9.713899841E0,-4.857398987E-1,1.003969650E1
1.196047067E1,2.467169495E0,-9.812544708E0,-1.883084106E-1,1.011970449E1
1.197047567E1,2.379152527E0,-9.942175140E0,1.616638184E-1,1.022415515E1
1.198048067E1,2.270777893E0,-1.000384689E1,2.728825378E-1,1.026196130E1
1.199048567E1,2.114951935E0,-9.969418488E0,7.499404907E-2,1.019156272E1
1.200049067E1,1.910776520E0,-9.952653351E0,-8.756790161E-2,1.013479372E1
1.201049567E1,1.717378693E0,-9.932295685E0,-3.058140564E-1,1.008431502E1
1.202049967E1,1.524130554E0,-9.803264008E0,-6.650669861E-1,9.943302934E0
1.203050467E1,1.237776031E0,-9.560618591E0,-7.426057434E-1,9.668969989E0
1.204050967E1,9.180409241E-1,-9.348809052E0,-4.855902100E-1,9.406318497E0
1.205051467E1,7.542814636E-1,-9.328750763E0,-7.559280396E-2,9.359500286E0
1.206051967E1,7.822732544E-1,-9.557175751E0,4.213737488E-1,9.598391303E0
1.207052467E1,1.196312256E0,-9.911938019E0,9.403445435E-1,1.002805695E1
1.208052967E1,1.725761261E0,-1.016940262E1,1.041983185E0,1.036729138E1
1.209053467E1,1.981579285E0,-1.026460464E1,5.864804077E-1,1.047056466E1
1.210053867E1,2.105371857E0,-1.022538620E1,3.308120728E-2,1.043993333E1
1.211054367E1,2.122885437E0,-1.010039612E1,-2.670446777E-1,1.032453181E1
1.212054867E1,2.036215668E0,-9.967921600E0,-2.586621094E-1,1.017705956E1
1.213055367E1,1.902693329E0,-9.949509888E0,-1.172062683E-1,1.013048499E1
1.214055867E1,1.607806549E0,-1.010773087E1,-3.562591553E-2,1.023486856E1
1.215056367E1,1.204994202E0,-1.031744476E1,8.831634521E-3,1.038757698E1
1.216057004E1,8.369096375E-1,-1.049377808E1,4.625381470E-2,1.052719979E1
1.217057504E1,5.544470215E-1,-1.053314621E1,1.377136230E-1,1.054862767E1
1.218057904E1,3.406915283E-1,-1.040770706E1,2.894979858E-1,1.041730513E1
1.219058404E1,3.848497009E-1,-1.001866608E1,5.631289673E-1,1.004185707E1
1.220058904E1,8.517288208E-1,-9.507329407E0,9.496252441E-1,9.592525347E0
1.221059404E1,1.241967316E0,-9.192534027E0,1.211580505E0,9.354843236E0
1.222059904E1,1.563049622E0,-9.167835388E0,1.075962524E0,9.362159216E0
1.223060404E1,1.870809631E0,-9.480086060E0,3.852987671E-1,9.670595406E0
1.224060904E1,2.002386017E0,-1.052596115E1,-4.111949158E-1,1.072261578E1
1.225061404E1,1.854194183E0,-1.163650177E1,-8.211923218E-1,1.181188242E1
1.226061804E1,1.571731567E0,-1.195833252E1,-8.626560974E-1,1.209199042E1
1.227062304E1,1.278341675E0,-1.171329208E1,-6.764433289E-1,1.180224320E1
1.228062804E1,1.232686615E0,-1.121138580E1,-2.993774414E-1,1.128292138E1
1.229063304E1,1.585353241E0,-1.026071274E1,6.885681152E-2,1.038269291E1
1.230063804E1,1.904938660E0,-9.106762390E0,2.161505127E-1,9.306375963E0
1.231064304E1,2.035616913E0,-8.267757111E0,1.249900818E-1,8.515583737E0
1.232064804E1,2.228116608E0,-7.798782349E0,-2.679428101E-2,8.110870956E0
1.233065304E1,2.586471405E0,-7.701634369E0,-1.212478638E-1,8.125251216E0
1.234065704E1,3.200943604E0,-8.160430298E0,-1.529818726E-1,8.767101348E0
1.235066204E1,3.884571991E0,-9.278904419E0,-1.122665405E-1,1.005984943E1
1.236066704E1,4.279750214E0,-1.031415161E1,-1.496887207E-2,1.116683525E1
1.237067204E1,4.490960999E0,-1.094823303E1,-4.939727783E-3,1.183353547E1
1.238067704E1,4.665647736E0,-1.124895767E1,-2.854563904E-1,1.218149428E1
1.239068204E1,5.094056854E0,-1.141915375E1,-7.411088562E-1,1.252580256E1
1.240068704E1,5.287604370E0,-1.138382721E1,-1.042731628E0,1.259514078E1
1.241069204E1,4.665797424E0,-1.099628311E1,-1.197509766E0,1.200507965E1
1.242069604E1,3.763473816E0,-1.030936157E1,-1.117426300E0,1.103155985E1
1.243070104E1,3.232527924E0,-9.534722443E0,-6.677613831E-1,1.008989961E1
1.244070604E1,3.182831268E0,-9.077573090E0,-6.421646118E-2,9.619608715E0
1.245071104E1,3.226690063E0,-9.236991577E0,6.423143005E-1,9.805412272E0
1.246071604E1,3.019221497E0,-9.596843262E0,1.459614716E0,1.016590253E1
1.247072104E1,2.642454987E0,-9.761650543E0,2.177671509E0,1.034478820E1
1.248072604E1,2.082469482E0,-9.746531982E0,2.661764832E0,1.031584009E1
1.249073104E1,1.432371368E0,-9.642198944E0,2.834505615E0,1.015175405E1
1.250073504E1,6.417155457E-1,-9.757010193E0,2.622097321E0,1.012355872E1
1.251074004E1,4.161346436E-2,-9.949509888E0,2.498454437E0,1.025849664E1
1.252074504E1,-3.667373657E-2,-9.956844635E0,2.560126190E0,1.028077556E1
1.253075004E1,4.320016479E-1,-9.940079498E0,2.662064209E0,1.029943648E1
1.254075504E1,1.787882080E0,-9.478589172E0,2.574945374E0,9.983512343E0
1.255076004E1,3.084635468E0,-8.736582184E0,2.141297150E0,9.509363686E0
1.256076504E1,3.731290741E0,-8.145760803E0,1.666185150E0,9.113293730E0
1.257077004E1,3.967050476E0,-7.763755188E0,1.111289062E0,8.789103906E0
1.258077404E1,3.821553040E0,-7.442822571E0,5.752537537E-1,8.386345589E0
1.259077904E1,3.502566376E0,-7.054679718E0,2.002835083E-1,7.878869882E0
1.260078404E1,3.173849945E0,-6.595883789E0,-4.385879517E-2,7.319899591E0
1.261078904E1,2.808759155E0,-6.208040314E0,-1.052311707E-1,6.814687530E0
1.262079404E1,2.383493500E0,-6.117179260E0,-6.227050781E-2,6.565424661E0
1.263079904E1,1.870210876E0,-6.442901917E0,-2.694396973E-2,6.708904516E0
1.264080404E1,1.359173584E0,-6.826853485E0,1.871109009E-2,6.960864274E0
1.265080904E1,9.955796814E-1,-7.174580383E0,1.378633118E-1,7.244638629E0
1.266081404E1,7.470964050E-1,-7.564818878E0,3.388952637E-1,7.609171288E0
1.267081804E1,5.352868652E-1,-8.101452942E0,5.869294739E-1,8.140304540E0
1.268082304E1,3.797602844E-1,-8.792565765E0,9.232800293E-1,8.849060776E0
1.269082804E1,2.528242493E-1,-9.564660187E0,1.589544525E0,9.699138951E0
1.270083304E1,1.305285645E-1,-1.031519943E1,2.970123596E0,1.073508320E1
1.271083804E1,9.834548950E-2,-1.082593735E1,4.223616943E0,1.162108133E1
1.272084304E1,3.462300110E-1,-1.096170502E1,4.596940613E0,1.189162374E1
1.273084804E1,5.533992004E-1,-1.088641159E1,4.512815552E0,1.179769945E1
1.274085204E1,2.134561157E-1,-1.084240311E1,4.556374969E0,1.176281520E1
1.275085704E1,-5.351371765E-1,-1.100541412E1,4.930596771E0,1.207130052E1
1.276086204E1,-1.304986267E0,-1.142514130E1,5.412594452E0,1.270956417E1
1.277086704E1,-1.758243713E0,-1.149429749E1,5.063220978E0,1.268252744E1
1.278087204E1,-1.594633942E0,-1.079824493E1,3.938609619E0,1.160420600E1
1.279087704E1,-1.523681488E0,-9.802066498E0,2.675685883E0,1.027430814E1
1.280088204E1,-1.103205872E0,-8.684640198E0,1.622476044E0,8.903508694E0
1.281088704E1,-1.835183716E-1,-7.909252625E0,9.445358276E-1,7.967565751E0
1.282089204E1,8.405021667E-1,-8.302335205E0,5.104385376E-1,8.360368488E0
1.283089604E1,1.910776520E0,-1.034378998E1,5.324427795E-1,1.053226250E1
1.284090104E1,3.285966797E0,-1.394994095E1,1.194665680E0,1.438143443E1
1.285090604E1,4.701123962E0,-1.709325439E1,1.929038544E0,1.783258540E1
1.286091104E1,5.612578583E0,-1.634032013E1,1.862726440E0,1.737748112E1
1.287091604E1,5.292693787E0,-1.168874313E1,1.737586670E0,1.294830224E1
1.288092104E1,3.770209808E0,-8.734636230E0,1.685944061E0,9.661819676E0
1.289092604E1,2.874472504E0,-7.758516083E0,8.207432556E-1,8.314492376E0
1.290093104E1,2.277364197E0,-7.789501648E0,-3.878434753E-1,8.124847455E0
1.291093504E1,1.622326355E0,-8.150700531E0,-8.864566040E-1,8.357730987E0
1.292094004E1,1.307680664E0,-8.322243805E0,-6.647676086E-1,8.450543571E0
1.293094504E1,1.555565186E0,-7.890541534E0,-2.369572449E-1,8.045904392E0
1.294095004E1,1.943109283E0,-7.142097931E0,1.392105103E-2,7.401718067E0
1.295095504E1,1.994452515E0,-6.475384369E0,-1.438508606E-1,6.777103853E0
1.296096004E1,2.038011932E0,-6.262676697E0,-5.975573730E-1,6.612993789E0
1.297096504E1,2.202220459E0,-6.803052979E0,-1.078806610E0,7.231537076E0
1.298096904E1,2.755320282E0,-7.896978149E0,-1.416055298E0,8.482880782E0
1.299097404E1,3.577560425E0,-9.107810211E0,-1.569486237E0,9.910319494E0
1.300097904E1,4.029470673E0,-1.016700760E1,-1.540746002E0,1.104439114E1
1.301098404E1,4.283193054E0,-1.072325089E1,-1.428928528E0,1.163510589E1
1.302098904E1,4.407135315E0,-1.071546707E1,-1.369202728E0,1.166699586E1
1.303099404E1,4.296665039E0,-1.028136978E1,-1.258283386E0,1.121388301E1
1.304099904E1,3.903283081E0,-9.758507080E0,-1.186881866E0,1.057699238E1
1.305100404E1,3.294648743E0,-9.534273376E0,-1.257235565E0,1.016551624E1
1.306100904E1,2.800975342E0,-9.537117462E0,-1.175804901E0,1.000922522E1
1.307101304E1,2.613115997E0,-9.457183685E0,-1.006357269E0,9.863034697E0
1.308101804E1,2.419867859E0,-9.438921661E0,-7.294331360E-1,9.771441822E0
1.309102304E1,2.227368164E0,-9.539961548E0,-3.827540588E-1,9.804006117E0
1.310102804E1,2.085313568E0,-9.602381744E0,-9.370513916E-2,9.826649912E0
1.311103304E1,2.052531738E0,-9.665999451E0,-1.377136230E-2,9.881529313E0
1.312103804E1,2.036515045E0,-9.759105835E0,-2.650987244E-1,9.972854033E0
1.313104304E1,2.014211426E0,-9.870773621E0,-6.893165588E-1,1.009774118E1
1.314104804E1,1.936822357E0,-9.997559967E0,-1.009949799E0,1.023340045E1
1.315105204E1,1.836979980E0,-1.005608826E1,-1.034498749E0,1.027470652E1
1.316105704E1,1.921853485E0,-1.003468277E1,-7.189549255E-1,1.024232763E1
1.317105750E1,2.251018982E0,-9.909393311E0,-2.062710571E-1,1.016394166E1
1.318106250E1,2.466121674E0,-9.755962372E0,1.543290710E-1,1.006401388E1
1.319106750E1,2.521805878E0,-9.471104736E0,1.128652954E-1,9.801738029E0
1.320107250E1,2.583477631E0,-9.132957916E0,-1.002914429E-1,9.491856264E0
1.321107750E1,2.578238525E0,-8.840316467E0,-1.996847534E-1,9.210775382E0
1.322108250E1,2.483036499E0,-8.709189148E0,-2.676434326E-1,9.060191989E0
1.323108650E1,2.343077545E0,-8.825646973E0,-2.700384521E-1,9.135369595E0
1.324109150E1,2.224823456E0,-9.139693909E0,-2.315684509E-1,9.409435058E0
1.325109650E1,2.078876953E0,-9.523346100E0,-4.490661621E-2,9.747710856E0
1.326110150E1,1.909429321E0,-9.849817200E0,1.032852173E-1,1.003371751E1
1.327110650E1,1.754800873E0,-1.002734802E1,6.885681152E-3,1.017973879E1
1.328111150E1,1.649869080E0,-1.002061203E1,-1.713935852E-1,1.015697343E1
1.329111650E1,1.574425964E0,-9.898316345E0,-2.945874023E-1,1.002707661E1
1.330112150E1,1.583556976E0,-9.765093384E0,-3.315605164E-1,9.898213671E0
1.331112550E1,1.589095459E0,-9.718989258E0,-1.122665405E-1,9.848684194E0
1.332113050E1,1.731000366E0,-9.773775330E0,3.655398560E-1,9.932606196E0
1.333113550E1,1.952988739E0,-9.780661011E0,4.993615723E-1,9.986233364E0
1.334114050E1,2.005230103E0,-9.775421906E0,-2.294728088E-1,9.981607033E0
1.335114550E1,1.758393402E0,-9.945917358E0,-1.140178986E0,1.016431147E1
1.336115050E1,1.251397705E0,-1.007105713E1,-1.093925171E0,1.020729446E1
1.337115550E1,7.026388550E-1,-9.971065063E0,-3.115022278E-1,1.000064365E1
1.338116050E1,2.815644836E-1,-9.704469452E0,5.122348022E-1,9.722056901E0
1.339116450E1,1.731898499E-1,-9.549092560E0,9.292675781E-1,9.595764778E0
1.340116950E1,7.433541870E-1,-9.590256958E0,1.002465363E0,9.671118900E0
1.341117450E1,1.757644958E0,-9.674681396E0,8.430468750E-1,9.869118702E0
1.342117950E1,2.366728363E0,-9.873018951E0,1.085243225E-1,1.015330901E1
1.343118450E1,2.522105255E0,-1.012195129E1,-1.143621826E0,1.049394034E1
1.344118950E1,2.400258636E0,-1.069555847E1,-1.697170715E0,1.109218648E1
1.345119450E1,1.876198425E0,-1.178708862E1,-1.518592072E0,1.203169567E1
1.346119950E1,1.354233856E0,-1.265842667E1,-1.012045441E0,1.277082421E1
1.347120450E1,1.207538910E0,-1.295960037E1,-4.790039062E-1,1.302454747E1
1.348120850E1,1.586550751E0,-1.269719604E1,4.251159668E-2,1.279600476E1
1.349121350E1,2.677033081E0,-1.171089706E1,4.941224670E-1,1.202313491E1
1.350121850E1,3.021017761E0,-1.045381119E1,3.553610229E-1,1.088737793E1
1.351122350E1,2.924318848E0,-9.060358887E0,-3.375480652E-1,9.526577695E0
1.352122850E1,2.990780640E0,-7.864944763E0,-7.954458618E-1,8.451914522E0
1.353123350E1,3.147654419E0,-7.058721313E0,-5.918692017E-1,7.751360144E0
1.354123850E1,3.392545166E0,-6.847959595E0,6.526428223E-2,7.642523977E0
1.355124250E1,3.685785370E0,-7.219187622E0,8.096662903E-1,8.145995533E0
1.356124750E1,3.873195648E0,-8.011490021E0,1.331481171E0,8.997691870E0
1.357125250E1,3.964056702E0,-9.224268036E0,1.460812225E0,1.014568079E1
1.358125750E1,3.986510010E0,-9.965227203E0,1.260229340E0,1.080676609E1
1.359126250E1,4.036506042E0,-1.008198441E1,7.899073792E-1,1.088869801E1
1.360126750E1,4.131408691E0,-1.006521927E1,3.742218018E-3,1.088012825E1
1.361127250E1,4.123026123E0,-1.015967285E1,-7.934999084E-1,1.099308596E1
1.362127750E1,4.023632812E0,-1.024005569E1,-1.304237823E0,1.107923273E1
1.363128150E1,3.711531830E0,-1.021595581E1,-1.409169617E0,1.096024547E1
1.364128650E1,3.398682404E0,-1.016685791E1,-1.146465912E0,1.078102156E1
1.365129150E1,3.329825592E0,-1.025577301E1,-7.554789734E-1,1.080922601E1
1.366129650E1,3.422931976E0,-1.058763290E1,-1.686991882E-1,1.112847219E1
1.367130150E1,3.371439056E0,-1.105451202E1,7.997868347E-1,1.158483907E1
1.368130650E1,2.868335266E0,-1.141511215E1,2.183958435E0,1.197087328E1
1.369131150E1,2.182611237E0,-1.120973923E1,3.335663452E0,1.189742392E1
1.370131650E1,1.811981964E0,-1.039872574E1,3.525319061E0,1.112855112E1
1.371132050E1,1.556762695E0,-9.530830536E0,3.008892975E0,1.011502238E1
1.372132550E1,1.347797241E0,-8.863069153E0,2.409090271E0,9.283009649E0
1.373133050E1,1.325942688E0,-8.405171356E0,1.998793488E0,8.740721077E0
1.374133550E1,1.319955139E0,-8.199948120E0,1.887275391E0,8.517231894E0
1.375134050E1,1.356778564E0,-8.186176758E0,1.944755859E0,8.522699885E0
1.376134550E1,1.459165649E0,-8.280330963E0,2.030377808E0,8.649594169E0
1.377135050E1,1.789528656E0,-8.324489136E0,2.077080688E0,8.764348029E0
1.378135550E1,2.303559723E0,-8.327931976E0,1.857786713E0,8.838111216E0
1.379135950E1,2.886447601E0,-7.961194611E0,1.407972107E0,8.584555017E0
1.380136450E1,3.248394928E0,-7.360044708E0,8.866062927E-1,8.093725868E0
1.381136950E1,3.350033569E0,-6.833140411E0,4.056564331E-1,7.620963846E0
1.382137450E1,3.282374268E0,-6.358028412E0,-6.137237549E-3,7.155315771E0
1.383137950E1,3.104843445E0,-5.969885559E0,-2.933898926E-1,6.735403777E0
1.384138450E1,2.790946198E0,-5.750591583E0,-3.246748352E-1,6.400320147E0
1.385138950E1,2.455044708E0,-5.906866608E0,-1.535806274E-1,6.398586145E0
1.386139450E1,2.158211975E0,-6.335126038E0,9.280700684E-2,6.693303667E0
1.387139950E1,1.960473175E0,-6.919361115E0,3.650907898E-1,7.200993306E0
1.388140350E1,1.771715698E0,-7.463479614E0,6.607260132E-1,7.699289794E0
1.389140850E1,1.398990784E0,-7.910150757E0,8.767268372E-1,8.080613229E0
1.390141350E1,9.858499146E-1,-8.635242920E0,1.092428284E0,8.759721451E0
1.391141850E1,6.905140686E-1,-9.584718475E0,1.625020752E0,9.745990477E0
1.392142350E1,2.829116821E-2,-1.061846878E1,3.339255981E0,1.113118638E1
1.393142850E1,-6.755451965E-1,-1.142499161E1,5.047054596E0,1.250837938E1
1.394143350E1,-8.213420105E-1,-1.195009964E1,5.303770752E0,1.309997971E1
1.395143850E1,-8.235873413E-1,-1.244362335E1,4.968767395E0,1.342425818E1
1.396144250E1,-1.245410156E0,-1.280706757E1,4.905449066E0,1.377081903E1
1.397144750E1,-2.050286407E0,-1.290511368E1,5.798491974E0,1.429573862E1
1.398145250E1,-2.434836731E0,-1.258971954E1,7.204368439E0,1.470824234E1
1.399145750E1,-2.396815796E0,-1.209170517E1,7.515571289E0,1.443737759E1
1.400146250E1,-2.104324036E0,-1.131916168E1,6.278094635E0,1.311358353E1
1.401146750E1,-1.469344482E0,-9.974657593E0,4.153412933E0,1.090429302E1
1.402147250E1,-6.601272583E-1,-8.493787079E0,1.696122894E0,8.686600014E0
1.403147750E1,-2.664459229E-2,-7.426955566E0,-5.071453857E-1,7.444298178E0
1.404148150E1,8.789721680E-1,-7.219187622E0,-1.813628540E0,7.495232516E0
1.405148650E1,2.116299133E0,-8.842112732E0,-2.317331085E0,9.382521140E0
1.406149150E1,3.520379333E0,-1.222687408E1,-1.983674927E0,1.287728569E1
1.407149650E1,5.100343781E0,-1.566357742E1,-1.525328064E-1,1.647374974E1
1.408150150E1,6.447542267E0,-1.684147797E1,2.928510132E0,1.826971135E1
1.409150650E1,7.080875244E0,-1.417836594E1,3.829785919E0,1.630435877E1
1.410151150E1,5.838458862E0,-1.107576782E1,2.855162659E0,1.284181407E1
1.411151650E1,4.229155426E0,-9.260642395E0,1.324595490E0,1.026644079E1
1.412152050E1,3.244652710E0,-8.271798706E0,3.966751099E-2,8.885493715E0
1.413152550E1,2.368075562E0,-7.809260559E0,-5.026547241E-1,8.175878798E0
1.414153050E1,1.705702972E0,-7.420518951E0,-3.484753418E-1,7.622004933E0
1.415153550E1,1.373992767E0,-6.801855469E0,7.544311523E-2,6.939653133E0
1.416154050E1,1.315464478E0,-5.996979218E0,3.505709839E-1,6.149561492E0
1.417154563E1,1.447190552E0,-5.284760284E0,3.737727356E-1,5.492063166E0
1.418155063E1,1.685794373E0,-5.029391327E0,1.531315613E-1,5.306611825E0
1.419155563E1,2.080074463E0,-5.744304657E0,-2.941383362E-1,6.116392983E0
1.420155963E1,2.716700592E0,-7.238198090E0,-7.846682739E-1,7.770950906E0
1.421156463E1,3.420237579E0,-8.934171295E0,-1.088985443E0,9.628256910E0
1.422156963E1,3.732637939E0,-1.043854294E1,-1.248703308E0,1.115594122E1
1.423157463E1,3.999083862E0,-1.120165604E1,-1.151405640E0,1.194970730E1
1.424157962E1,4.427642670E0,-1.128144012E1,-5.541476440E-1,1.213185849E1
1.425158463E1,4.545896759E0,-1.088386688E1,2.378553772E-1,1.179747053E1
1.426158963E1,3.828887787E0,-1.020502853E1,5.577401733E-1,1.091393894E1
1.427159463E1,2.671344910E0,-9.606872406E0,-8.382568359E-3,9.971366572E0
1.428159863E1,2.301464081E0,-8.925788727E0,-8.120613098E-1,9.253425576E0
1.429160363E1,2.204166412E0,-8.449179840E0,-1.249152374E0,8.820848667E0
1.430160863E1,1.917961578E0,-8.391699371E0,-1.219963074E0,8.694107479E0
1.431161363E1,1.526974640E0,-8.676557007E0,-1.008153534E0,8.867393450E0
1.432161863E1,1.273551636E0,-9.046138458E0,-7.773335266E-1,9.168358751E0
1.433162363E1,1.218915253E0,-9.283993835E0,-5.682183838E-1,9.380893777E0
1.434162862E1,1.246308289E0,-9.370513916E0,-2.231858826E-1,9.455666414E0
1.435163363E1,1.428778839E0,-9.251062317E0,1.859133911E-1,9.362591882E0
1.436163863E1,1.617536316E0,-9.103319550E0,3.402424622E-1,9.252168151E0
1.437164263E1,1.660347290E0,-9.034163361E0,1.570234680E-1,9.186812130E0
1.438164763E1,1.707199860E0,-9.063202972E0,-2.604583740E-1,9.226267829E0
1.439165263E1,1.945653992E0,-9.175768890E0,-6.484515381E-1,9.402169621E0
1.440165763E1,2.359992371E0,-9.379944305E0,-9.451345825E-1,9.718343405E0
1.441166263E1,2.713257751E0,-9.668544159E0,-1.083896027E0,1.010036358E1
1.442166763E1,2.826572113E0,-9.900711365E0,-8.918453979E-1,1.033484318E1
1.443167263E1,2.859054565E0,-9.977651367E0,-4.147874451E-1,1.038748133E1
1.444167663E1,2.908451843E0,-9.974507904E0,1.184037781E-1,1.039056878E1
1.445168163E1,2.966680756E0,-9.913584595E0,4.020639038E-1,1.035577180E1
1.446168663E1,2.953208771E0,-9.925260315E0,1.377136230E-1,1.035621550E1
1.447169163E1,2.838098145E0,-1.002540207E1,-3.378474426E-1,1.042485629E1
1.448169663E1,2.698588257E0,-1.014605118E1,-4.748126221E-1,1.050952806E1
1.449170163E1,2.540367279E0,-1.040591080E1,-1.643582153E-1,1.071277084E1
1.450170663E1,2.549498291E0,-1.071277267E1,3.326083374E-1,1.101698998E1
1.451171163E1,2.556533661E0,-1.089060287E1,6.026467896E-1,1.120286921E1
1.452171663E1,2.401755524E0,-1.091140961E1,5.424719238E-1,1.118577512E1
1.453172063E1,2.164947968E0,-1.078402451E1,2.868035889E-1,1.100292873E1
1.454172563E1,1.793570251E0,-1.063074326E1,-1.182540894E-2,1.078098958E1
1.455173063E1,1.395697632E0,-1.046189438E1,-3.168910217E-1,1.055933832E1
1.456173563E1,1.038390656E0,-1.033450928E1,-7.448510742E-1,1.041321950E1
1.457174063E1,7.888595581E-1,-1.036684204E1,-9.762698364E-1,1.044254835E1
1.458174563E1,5.430706787E-1,-1.035845947E1,-4.239184570E-1,1.038134458E1
1.459175062E1,1.660047913E-1,-1.028301636E1,4.370910645E-1,1.029364035E1
1.460175563E1,-4.191284180E-2,-1.023287064E1,7.562274170E-1,1.026086147E1
1.461175963E1,3.978726196E-1,-1.009500732E1,4.793032837E-1,1.011420818E1
1.462176463E1,1.312770081E0,-9.845027161E0,1.812730408E-1,9.933820262E0
1.463176963E1,1.958826599E0,-9.627679138E0,-1.101708984E-1,9.825545525E0
1.464177463E1,2.442620544E0,-9.416468353E0,-8.511300659E-1,9.765280014E0
1.465177963E1,2.664010162E0,-9.471703491E0,-1.662742310E0,9.978718813E0
1.466178463E1,2.681673431E0,-1.001941452E1,-1.899849243E0,1.054464162E1
1.467178963E1,2.525398407E0,-1.098490677E1,-1.746118927E0,1.140590834E1
1.468179463E1,2.564167786E0,-1.182540894E1,-1.385518799E0,1.217928221E1
1.469179863E1,2.846929779E0,-1.240440491E1,-8.951385498E-1,1.275835190E1
1.470180363E1,3.263513489E0,-1.246338226E1,-1.594184875E-1,1.288455789E1
1.471180863E1,3.691024475E0,-1.154144943E1,5.180726624E-1,1.212835999E1
1.472181363E1,3.635639648E0,-9.917027435E0,4.601431274E-1,1.057246615E1
1.473181863E1,3.310964813E0,-8.468489685E0,-3.487747192E-2,9.092800557E0
1.474182363E1,2.923420715E0,-7.366631012E0,-2.845582581E-1,7.930612495E0
1.475182863E1,2.598147125E0,-6.714287567E0,-9.819580078E-2,7.200115863E0
1.476183363E1,2.534230042E0,-6.620582428E0,4.812492371E-1,7.105352519E0
1.477183763E1,2.707569580E0,-6.638545074E0,1.097517700E0,7.252982755E0
1.478184263E1,3.083138580E0,-6.762786713E0,1.367556152E0,7.557197725E0
1.479184763E1,3.471730499E0,-7.472460938E0,1.216669922E0,8.328917746E0
1.480185263E1,3.372486877E0,-8.339757385E0,8.954379272E-1,9.040300330E0
1.481185763E1,3.015030212E0,-8.956774292E0,4.320016479E-1,9.460488271E0
1.482186263E1,3.078947296E0,-9.517807617E0,-9.370513916E-2,1.000386720E1
1.483186763E1,3.593427429E0,-1.020353165E1,-5.563929749E-1,1.083209822E1
1.484187263E1,4.070036316E0,-1.077818665E1,-8.132588196E-1,1.154971397E1
1.485187763E1,4.149221649E0,-1.120569763E1,-8.458909607E-1,1.197911646E1
1.486188163E1,3.804638214E0,-1.144175674E1,-5.125341797E-1,1.206862712E1
1.487188663E1,3.142864380E0,-1.144220581E1,1.434017944E-1,1.186685444E1
1.488189163E1,2.734812927E0,-1.119791382E1,9.232800293E-1,1.156394922E1
1.489189663E1,2.449655914E0,-1.081156723E1,1.852098541E0,1.123926461E1
1.490190163E1,2.125579834E0,-1.048434769E1,2.941982117E0,1.109481387E1
1.491190663E1,1.703158264E0,-1.005204666E1,3.959865417E0,1.093731797E1
1.492191163E1,1.300794983E0,-9.554780731E0,4.227209473E0,1.052877972E1
1.493191663E1,1.086889801E0,-9.205556946E0,3.644920349E0,9.960374113E0
1.494192063E1,1.054107971E0,-8.972790985E0,2.812052307E0,9.462016691E0
1.495192563E1,1.203647003E0,-8.818012848E0,2.107916565E0,9.146006174E0
1.496193063E1,1.461710358E0,-8.588540039E0,1.593885498E0,8.856640907E0
1.497193563E1,1.688638458E0,-8.433761902E0,1.366957397E0,8.709099390E0
1.498194063E1,1.887125702E0,-8.315058746E0,1.382824402E0,8.637919234E0
1.499194563E1,2.108665009E0,-8.235424347E0,1.486259308E0,8.630043396E0
1.500195063E1,2.343676300E0,-8.168064423E0,1.573527832E0,8.642111134E0
1.501195563E1,2.597698059E0,-8.059989166E0,1.586999817E0,8.615685056E0
1.502195963E1,2.785856781E0,-7.804470520E0,1.457668762E0,8.414009527E0
1.503196462E1,2.845881958E0,-7.357350311E0,1.145867157E0,7.971364956E0
1.504196963E1,2.805166626E0,-6.863976288E0,7.807763672E-1,7.456054051E0
1.505197463E1,2.766996002E0,-6.510112152E0,5.276527405E-1,7.093394429E0
1.506197963E1,2.667003937E0,-6.316265259E0,4.463717651E-1,6.870761571E0
1.507198463E1,2.445314941E0,-6.220763855E0,5.200186157E-1,6.704318568E0
1.508198963E1,2.017654266E0,-6.275250549E0,7.942483521E-1,6.639316881E0
1.509199463E1,1.516646118E0,-6.487209778E0,1.255439301E0,6.779397760E0
1.510199863E1,1.210832062E0,-6.920109558E0,1.844763794E0,7.263414076E0
1.511200363E1,1.113384705E0,-7.688162384E0,2.451452179E0,8.145985768E0
1.512200863E1,1.112636261E0,-8.590485992E0,2.967728577E0,9.156518003E0
1.513201362E1,1.135838013E0,-9.488618317E0,3.167263641E0,1.006755008E1
1.514201863E1,1.249751129E0,-1.020487885E1,3.114273834E0,1.074244533E1
1.515202363E1,1.338815918E0,-1.059990738E1,2.930905151E0,1.107883882E1
1.516202863E1,1.241817627E0,-1.093296478E1,2.855462036E0,1.136773915E1
1.517203279E1,8.059240723E-1,-1.137694153E1,3.180735626E0,1.184066684E1
1.518203779E1,1.480421448E-1,-1.211775101E1,3.956572266E0,1.274818693E1
1.519204179E1,-7.026388550E-1,-1.263238083E1,5.187163239E0,1.367396831E1
1.520204679E1,-1.621278534E0,-1.238479568E1,6.755451965E0,1.420027604E1
1.521205179E1,-1.644330597E0,-1.160521683E1,8.099207611E0,1.424717673E1
1.522205679E1,-1.636397095E0,-1.123548569E1,8.052953796E0,1.391991375E1
1.523206179E1,-1.655856628E0,-1.097921860E1,6.630312195E0,1.293236800E1
1.524206679E1,-1.110839996E0,-1.014485367E1,4.770429840E0,1.126539046E1
1.525207179E1,-9.699829102E-2,-9.234297180E0,2.681224365E0,9.616164369E0
1.526207679E1,1.191971283E0,-9.534123688E0,5.968089294E-1,9.626862985E0
1.527208079E1,2.558180237E0,-1.162288010E1,-8.059240723E-1,1.192833356E1
1.528208579E1,3.633244629E0,-1.388377853E1,-1.297651520E0,1.440984637E1
1.529209079E1,4.063150635E0,-1.494701752E1,-1.311871948E0,1.554488770E1
1.530209579E1,4.487518158E0,-1.392793671E1,-1.363215179E0,1.469638036E1
1.531210079E1,4.579576721E0,-1.163425644E1,-1.294208679E0,1.256994121E1
1.532210579E1,3.875740356E0,-9.813592529E0,-8.270301819E-1,1.058356937E1
1.533211079E1,3.141217804E0,-8.350085907E0,-2.276765442E-1,8.924293841E0
1.534211579E1,2.870131531E0,-7.104975128E0,4.772076416E-1,7.677633340E0
1.535211979E1,2.601739655E0,-5.998925171E0,1.499880981E0,6.708635882E0
1.536212479E1,1.864522705E0,-5.304519196E0,2.117796021E0,6.008280020E0
1.537212979E1,1.157842255E0,-5.240153046E0,1.324296112E0,5.527527731E0
1.538213479E1,1.197809143E0,-5.416785736E0,-1.227447510E-2,5.547654019E0
1.539213979E1,1.626966705E0,-5.701343994E0,-9.286688232E-1,6.001230689E0
1.540214479E1,2.204166412E0,-6.495143280E0,-1.447489929E0,7.010025884E0
1.541214979E1,3.318449249E0,-7.884553986E0,-1.614093475E0,8.705377345E0
1.542215479E1,4.429888000E0,-9.530980225E0,-1.399290161E0,1.060290077E1
1.543215979E1,4.442611542E0,-1.089838669E1,-1.080453186E0,1.181858743E1
1.544216379E1,4.069138184E0,-1.149369873E1,-9.277706909E-1,1.222799062E1
1.545216879E1,4.216880951E0,-1.134116592E1,-5.861810303E-1,1.211394806E1
1.546217379E1,4.432732086E0,-1.065244812E1,-8.607101440E-2,1.153824826E1
1.547217879E1,3.923041992E0,-9.778415680E0,-1.990859985E-2,1.053603664E1
1.548218379E1,2.980751495E0,-9.113797760E0,-6.177653503E-1,9.608736812E0
1.549218879E1,2.538571014E0,-8.688232727E0,-1.231788483E0,9.134934788E0
1.550219379E1,2.426454163E0,-8.507857819E0,-1.538350983E0,8.979857917E0
1.551219879E1,2.264341278E0,-8.721912689E0,-1.530118103E0,9.140036312E0
1.552220279E1,2.125130768E0,-9.141789551E0,-1.290915527E0,9.473909429E0
1.553220779E1,2.148781586E0,-9.458381195E0,-9.885443115E-1,9.749638813E0
1.554221279E1,2.298170929E0,-9.623487854E0,-7.223977661E-1,9.920431776E0
1.555221779E1,2.354603577E0,-9.695637817E0,-5.225633240E-1,9.991127220E0
1.556222279E1,2.245630188E0,-9.667945404E0,-4.087998962E-1,9.933737496E0
1.557222779E1,2.123184814E0,-9.527986450E0,-4.680766296E-1,9.772897998E0
1.558223279E1,2.179018707E0,-9.447154541E0,-5.628295898E-1,9.711520406E0
1.559223779E1,2.353406067E0,-9.555229797E0,-5.541476440E-1,9.856369322E0
1.560224179E1,2.467468872E0,-9.754315796E0,-3.454815674E-1,1.006749407E1
1.561224679E1,2.548749847E0,-9.937834167E0,-1.466949463E-1,1.026051622E1
1.562225179E1,2.640658722E0,-9.918374634E0,-4.041595459E-3,1.026388085E1
1.563225679E1,2.692001953E0,-9.654623108E0,2.059716797E-1,1.002502101E1
1.564226179E1,2.697390747E0,-9.311536560E0,3.107537842E-1,9.699340074E0
1.565226679E1,2.435884552E0,-9.207951965E0,-1.691482544E-2,9.524715169E0
1.566227179E1,1.972897339E0,-9.371412048E0,-5.192701721E-1,9.590898248E0
1.567227679E1,1.644929352E0,-9.699978790E0,-6.107299805E-1,9.857401900E0
1.568228179E1,1.379830627E0,-1.008183472E1,-1.610650635E-1,1.017709515E1
1.569228579E1,1.192869415E0,-1.034289185E1,5.472619629E-1,1.042582586E1
1.570229079E1,1.148262177E0,-1.049377808E1,1.127006378E0,1.061640371E1
1.571229579E1,1.294058990E0,-1.065125061E1,1.323996735E0,1.081095258E1
1.572230079E1,1.490899658E0,-1.078881454E1,1.381327515E0,1.097858674E1
1.573230579E1,1.654808807E0,-1.070932983E1,1.354682922E0,1.092077394E1
1.574231079E1,1.746867371E0,-1.034019745E1,8.180488586E-1,1.051857561E1
1.575231579E1,1.566342773E0,-9.937085724E0,-1.197509766E-2,1.005978358E1
1.576232079E1,1.133892059E0,-9.752519531E0,-6.340814209E-1,9.838668998E0
1.577232479E1,8.683442688E-1,-9.903555450E0,-8.815168762E-1,9.980556314E0
1.578232979E1,7.915539551E-1,-1.005429199E1,-4.689747620E-1,1.009630043E1
1.579233479E1,5.171745300E-1,-1.016176849E1,3.391946411E-1,1.018057275E1
1.580233979E1,1.977388000E-1,-1.021505768E1,6.568341064E-1,1.023806305E1
1.581234479E1,1.749861145E-1,-1.011027557E1,4.149371338E-1,1.012029966E1
1.582234979E1,2.962339783E-1,-1.003722748E1,-2.275268555E-2,1.004162376E1
1.583235479E1,9.415420532E-1,-1.000534378E1,-6.200106812E-1,1.006865527E1
1.584235979E1,1.909579010E0,-1.053075119E1,-1.328786774E0,1.078465980E1
1.585236379E1,2.591560822E0,-1.175640244E1,-1.866318970E0,1.218246002E1
1.586236879E1,3.115621033E0,-1.265588196E1,-1.786385193E0,1.315559252E1
1.587237379E1,3.500021667E0,-1.285032761E1,-1.127455444E0,1.336608496E1
1.588237879E1,3.904929657E0,-1.239048386E1,-2.179467773E-1,1.299307764E1
1.589238379E1,4.409230957E0,-1.125958557E1,5.930667114E-1,1.210666399E1
1.590238879E1,4.567451935E0,-9.747130737E0,8.328680420E-1,1.079638106E1
1.591239379E1,4.235442352E0,-8.483757935E0,4.028123474E-1,9.490804939E0
1.592239879E1,3.644920349E0,-7.646848297E0,-1.468446350E-1,8.472384350E0
1.593240379E1,3.147504730E0,-7.252418518E0,-3.595523071E-1,7.914141662E0
1.594240779E1,2.952610016E0,-7.104076996E0,-1.523831177E-1,7.694740833E0
1.595241279E1,3.096011810E0,-6.985074463E0,2.338137817E-1,7.644031872E0
1.596241779E1,3.603606262E0,-7.271878052E0,6.387217712E-1,8.140893931E0
1.597242279E1,4.121978302E0,-8.000862122E0,1.094074860E0,9.066504266E0
1.598242779E1,4.449796600E0,-8.649014282E0,1.479673004E0,9.838473969E0
1.599243279E1,4.502337341E0,-9.104367371E0,1.478625183E0,1.026386278E1
1.600243779E1,4.120032349E0,-9.600735168E0,9.621990967E-1,1.049164474E1
1.601244279E1,3.732787628E0,-9.962383118E0,1.904040527E-1,1.064044334E1
1.602244679E1,3.602259064E0,-1.015009277E1,-4.679269409E-1,1.078051990E1
1.603245179E1,3.638334045E0,-1.027912445E1,-7.716453552E-1,1.093129959E1
1.604245679E1,3.563040619E0,-1.031145721E1,-7.655081177E-1,1.093651732E1
1.605246179E1,3.333567810E0,-1.037717056E1,-4.813989258E-1,1.091009112E1
1.606246679E1,2.840493164E0,-1.047746201E1,-7.125183105E-2,1.085590569E1
1.607247179E1,2.212249603E0,-1.046099625E1,6.387217712E-1,1.071141710E1
1.608247679E1,1.386416931E0,-1.032343231E1,2.095492401E0,1.062480565E1
1.609248179E1,4.793032837E-1,-1.006117767E1,3.697910156E0,1.072993790E1
1.610248679E1,2.171983337E-1,-9.572294312E0,4.472848663E0,1.056798792E1
1.611249079E1,3.258723450E-1,-8.976982269E0,4.318369904E0,9.966981593E0
1.612249579E1,1.730401611E-1,-8.588689728E0,3.643423462E0,9.331134372E0
1.613250079E1,6.286926270E-2,-8.482410736E0,2.854114838E0,8.949928265E0
1.614250579E1,1.739382935E-1,-8.402776337E0,2.198927307E0,8.687472935E0
1.615251079E1,4.264631653E-1,-8.347690887E0,1.795815582E0,8.549313867E0
1.616251579E1,8.161029053E-1,-8.351882172E0,1.530567169E0,8.530099391E0
1.617252529E1,1.429826660E0,-8.279881897E0,1.325493622E0,8.506337746E0
1.618253029E1,2.123783569E0,-7.949818268E0,1.143023071E0,8.307621133E0
1.619253429E1,2.676134949E0,-7.509134674E0,8.948391724E-1,8.021816438E0
1.620253929E1,3.091820526E0,-7.196584625E0,6.262976074E-1,7.857635339E0
1.621254429E1,3.344794464E0,-6.931036835E0,4.478686523E-1,7.708923916E0
1.622254929E1,3.436403961E0,-6.699618073E0,4.002676392E-1,7.540157073E0
1.623255429E1,3.361858978E0,-6.421646118E0,4.043092346E-1,7.259690118E0
1.624255929E1,3.035088501E0,-6.129902802E0,5.276527405E-1,6.860458292E0
1.625256429E1,2.420616302E0,-6.244714050E0,8.186476135E-1,6.747297294E0
1.626256929E1,1.964215393E0,-6.764732666E0,1.197210388E0,7.145142606E0
1.627257329E1,1.740430756E0,-7.438780975E0,1.708397369E0,7.828357630E0
1.628257829E1,1.455872498E0,-8.323591003E0,2.522404633E0,8.818404450E0
1.629258329E1,1.120270386E0,-9.216484222E0,3.438798981E0,9.900703288E0
1.630258829E1,9.827064514E-1,-9.840985565E0,3.743116150E0,1.057457457E1
1.631259329E1,1.013242950E0,-1.027553192E1,3.412603455E0,1.087469907E1
1.632259829E1,1.243164825E0,-1.067160828E1,2.979104919E0,1.114915908E1
1.633260329E1,1.166673889E0,-1.117007172E1,2.876568146E0,1.159337200E1
1.634260829E1,1.012793884E0,-1.207164688E1,3.405717773E0,1.258369276E1
1.635261329E1,8.181985474E-1,-1.278311737E1,4.477788391E0,1.356938198E1
1.636261729E1,2.788700867E-1,-1.284194504E1,6.383625183E0,1.434377884E1
1.637262229E1,-6.518943787E-1,-1.290676025E1,8.673862610E0,1.556423204E1
1.638262729E1,-1.538650360E0,-1.293579987E1,9.612410889E0,1.618952767E1
1.639263229E1,-2.308200073E0,-1.210772186E1,8.292006683E0,1.485537247E1
1.640263729E1,-2.538571014E0,-1.049063461E1,5.846991119E0,1.227538441E1
1.641264229E1,-1.996847534E0,-8.846304016E0,2.751278687E0,9.477026392E0
1.642264729E1,-7.104226685E-1,-7.716303864E0,-3.050656128E-1,7.754941051E0
1.643265229E1,1.132245483E0,-7.795489197E0,-2.259401550E0,8.194908603E0
1.644265629E1,2.575843506E0,-9.683812408E0,-2.964884491E0,1.044996328E1
1.645266129E1,3.388653259E0,-1.211700256E1,-2.484234009E0,1.282482517E1
1.646266629E1,4.699178009E0,-1.416279831E1,-1.224753113E0,1.497221260E1
1.647267129E1,6.115832062E0,-1.499910919E1,-1.008153534E0,1.622938853E1
1.648267629E1,6.204298096E0,-1.357631790E1,-1.213825836E0,1.497608413E1
1.649268129E1,5.408403168E0,-1.081022003E1,-7.436535645E-1,1.211052033E1
1.650268629E1,4.339925079E0,-8.414901123E0,3.532653809E-1,9.474719364E0
1.651269129E1,4.004023590E0,-6.183341675E0,2.479743347E0,7.772711640E0
1.652269529E1,3.382216644E0,-4.321663055E0,5.229674835E0,7.580610785E0
1.653270029E1,1.180445251E0,-4.877307587E0,3.980821838E0,6.405351106E0
1.654270529E1,6.524931335E-1,-6.074218597E0,1.025517426E0,6.194640010E0
1.655271029E1,1.507066040E0,-6.221362610E0,-1.428629150E0,6.558779004E0
