"Time (s)","Acceleration x (m/s^2)","Acceleration y (m/s^2)","Acceleration z (m/s^2)","Absolute acceleration (m/s^2)"
-1.207624970E-3,1.099463654E0,3.133583679E0,9.834548950E0,1.038010212E1
8.797375020E-3,4.757107544E-1,3.247945862E0,9.584568787E0,1.013111109E1
1.880237501E-2,-7.319778442E-2,3.045716400E0,9.019044800E0,9.519711939E0
2.880637499E-2,1.743873596E-1,3.018173676E0,8.834029541E0,9.337015648E0
3.881137504E-2,3.216810608E-1,2.896027679E0,8.689879303E0,9.165394554E0
4.881637503E-2,5.203179932E-1,2.756517792E0,8.638536072E0,9.082589202E0
5.882037501E-2,6.674620056E-1,2.723137207E0,8.502469025E0,8.952818623E0
6.882537500E-2,7.405101013E-1,2.451901245E0,8.096064148E0,8.491550483E0
7.883037499E-2,8.885522461E-1,2.279759216E0,7.833061066E0,8.206319080E0
8.883437503E-2,1.105002136E0,2.228266296E0,7.817044373E0,8.203193472E0
9.883937502E-2,1.231638794E0,2.136956177E0,7.694748688E0,8.080388183E0
1.088443750E-1,1.370849304E0,2.025438080E0,7.403454437E0,7.796971517E0
1.188483750E-1,1.482517090E0,1.935475159E0,7.107669525E0,7.514179070E0
1.288533750E-1,1.583407288E0,1.848356323E0,6.881340179E0,7.299071338E0
1.388583750E-1,1.634151764E0,1.768422546E0,6.619534607E0,7.043863194E0
1.488623750E-1,1.689985657E0,1.614991608E0,6.274801483E0,6.696072212E0
1.588673750E-1,1.734443207E0,1.483864288E0,5.859415283E0,6.288314077E0
1.688723750E-1,1.773362274E0,1.197958832E0,5.311704254E0,5.726615161E0
1.788763750E-1,2.022294617E0,9.831555176E-1,4.855602722E0,5.350995056E0
1.888813750E-1,2.242786102E0,7.909552002E-1,4.594695282E0,5.173676098E0
1.988863750E-1,2.426304474E0,6.328839111E-1,4.451742554E0,5.109354872E0
2.088903750E-1,2.502795410E0,5.089416504E-1,4.463567963E0,5.142610760E0
2.188953750E-1,2.519410858E0,4.041595459E-1,4.407285004E0,5.092635576E0
2.289003750E-1,2.456691284E0,2.670446777E-1,4.341272278E0,4.995326808E0
2.389043750E-1,2.542013855E0,2.007325745E-1,4.258195038E0,4.963300614E0
2.489093750E-1,2.766546936E0,1.261875916E-1,4.213737488E0,5.042349539E0
2.589133750E-1,3.041375427E0,-4.281097412E-2,4.201612701E0,5.187036395E0
2.689217083E-1,3.495381317E0,-2.073188782E-1,4.395160217E0,5.619439919E0
2.789267083E-1,3.950435028E0,-3.044668579E-1,4.614154816E0,6.081863336E0
2.889317083E-1,4.128564606E0,-5.264552307E-1,4.465813293E0,6.104562981E0
2.989357084E-1,4.137545929E0,-9.174421692E-1,3.971541138E0,5.808108595E0
3.089407083E-1,4.198768616E0,-1.414857788E0,3.253933411E0,5.497232312E0
3.189457083E-1,4.317172394E0,-1.948498077E0,2.685565338E0,5.444895171E0
3.289497083E-1,4.445755005E0,-2.477198639E0,2.198777618E0,5.543994379E0
3.389547084E-1,4.568350067E0,-3.007845154E0,1.823208618E0,5.765504702E0
3.489587083E-1,4.692591705E0,-3.353326721E0,1.844165039E0,6.055259012E0
3.589637083E-1,4.824617157E0,-3.594026184E0,2.394720154E0,6.475232779E0
3.689687083E-1,5.058730316E0,-3.784579926E0,3.332819366E0,7.142932350E0
3.789727084E-1,5.033732300E0,-3.991898804E0,3.814817047E0,7.471716404E0
3.889777084E-1,4.900060272E0,-4.381837921E0,3.699556732E0,7.543063983E0
3.989827083E-1,4.907245331E0,-4.813839569E0,3.106639709E0,7.543561388E0
4.089867083E-1,5.240602112E0,-5.453609161E0,2.747237091E0,8.046929540E0
4.189917084E-1,5.738167419E0,-5.851930847E0,3.126248932E0,8.771835176E0
4.289967084E-1,6.320007477E0,-6.045029297E0,4.314178619E0,9.751769627E0
4.390007083E-1,6.595135345E0,-6.259832611E0,5.455106049E0,1.060374917E1
4.490057083E-1,6.603517914E0,-6.456673279E0,6.282285919E0,1.116969986E1
4.590107083E-1,6.535559235E0,-6.519392853E0,6.475983124E0,1.127627488E1
4.690147084E-1,6.489604797E0,-6.232439575E0,6.341113586E0,1.100763349E1
4.790197083E-1,6.693929901E0,-5.954916687E0,6.567742310E0,1.110877893E1
4.890247083E-1,7.481591949E0,-5.508095856E0,7.752229156E0,1.210001632E1
4.990287083E-1,8.875643005E0,-4.933740234E0,9.660610657E0,1.401592772E1
5.090337084E-1,9.994416504E0,-4.537663879E0,1.096844101E1,1.551726306E1
5.190387084E-1,1.057550812E1,-4.329446869E0,1.128578110E1,1.606095692E1
5.290427083E-1,1.087293961E1,-3.899540863E0,1.115809662E1,1.606021030E1
5.390477083E-1,1.122665405E1,-3.402274933E0,1.115390533E1,1.618711958E1
5.490527083E-1,1.176343781E1,-2.837649078E0,1.137724091E1,1.660940492E1
5.590567084E-1,1.268207748E1,-1.838476868E0,1.192689789E1,1.750616976E1
5.690617083E-1,1.369277573E1,-9.764195251E-1,1.238344849E1,1.848770669E1
5.790667083E-1,1.438972641E1,-3.201841736E-1,1.255199799E1,1.909762806E1
5.890707083E-1,1.480631012E1,4.680766296E-1,1.249975662E1,1.938271990E1
5.990757084E-1,1.489462646E1,1.078357544E0,1.219993011E1,1.928343972E1
6.090807084E-1,1.454764801E1,1.340163116E0,1.167018173E1,1.869821493E1
6.190847083E-1,1.425111465E1,1.503772888E0,1.118279526E1,1.817719757E1
6.290897083E-1,1.418674850E1,1.297052765E0,1.062745010E1,1.777326292E1
6.390947084E-1,1.403496414E1,9.719288635E-1,9.766739960E0,1.712641450E1
6.490987084E-1,1.408900177E1,5.990542603E-1,8.773405609E0,1.660817518E1
6.591037083E-1,1.462788116E1,4.510121155E-1,7.960745544E0,1.665988562E1
6.691087083E-1,1.549068695E1,5.655239868E-1,7.619904327E0,1.727264142E1
6.791127084E-1,1.671139847E1,4.930746460E-1,7.536976776E0,1.833902888E1
6.891177084E-1,1.821547073E1,4.198768616E-1,7.859555969E0,1.984319255E1
6.991227083E-1,1.981908600E1,3.013233948E-1,8.579558716E0,2.159851368E1
7.091267083E-1,2.128663422E1,2.740800476E-1,9.350755005E0,2.325150609E1
7.191317083E-1,2.224449234E1,2.757266235E-1,9.918075256E0,2.435696372E1
7.291367084E-1,2.291824127E1,3.231779480E-1,1.055335419E1,2.523338090E1
7.391407083E-1,2.379197433E1,1.691482544E-2,1.084883972E1,2.614872181E1
7.491457083E-1,2.505878998E1,-4.549040222E-1,1.077459412E1,2.728079492E1
7.591507083E-1,2.683873856E1,-6.268963623E-1,1.104508163E1,2.902937675E1
7.691547084E-1,2.836840759E1,-9.979747009E-1,1.130239655E1,3.055334140E1
7.791597084E-1,2.935740097E1,-1.321751404E0,1.182795364E1,3.167813924E1
7.891647083E-1,3.033666458E1,-1.817969513E0,1.248164429E1,3.285437072E1
7.991687083E-1,3.087374771E1,-2.667752380E0,1.288879761E1,3.356227502E1
8.091737083E-1,3.124407761E1,-3.759881287E0,1.320059921E1,3.412601518E1
8.191787084E-1,3.152489365E1,-4.804708557E0,1.325478653E1,3.453394721E1
8.291827083E-1,3.141562088E1,-5.596412201E0,1.319700668E1,3.453146464E1
8.391877083E-1,3.122521683E1,-6.151607666E0,1.330717758E1,3.449546953E1
8.491917083E-1,3.109019760E1,-6.565646667E0,1.381282608E1,3.464826500E1
8.591967084E-1,3.126189056E1,-7.000492401E0,1.433733536E1,3.509803243E1
8.692017084E-1,3.103945312E1,-7.339237976E0,1.478385681E1,3.515500657E1
8.792057083E-1,3.014985306E1,-7.402406616E0,1.555116119E1,3.472244055E1
8.892107083E-1,2.872032578E1,-7.584577789E0,1.587029755E1,3.367861751E1
8.992157084E-1,2.662692902E1,-7.788753204E0,1.534219574E1,3.170238154E1
9.092197084E-1,2.418954758E1,-7.538473663E0,1.447624649E1,2.918089289E1
9.192247083E-1,2.199675751E1,-7.418572998E0,1.329610062E1,2.675217482E1
9.292297083E-1,2.017369858E1,-7.338489532E0,1.147364044E1,2.434082924E1
9.392337084E-1,1.890703262E1,-7.665260010E0,9.553732910E0,2.252789174E1
9.492387084E-1,1.730985397E1,-7.408094788E0,8.094567261E0,2.049470498E1
9.592437083E-1,1.572435104E1,-6.742129669E0,7.699987793E0,1.876169876E1
9.692477083E-1,1.454315735E1,-6.187233582E0,7.878716125E0,1.765954283E1
9.792527083E-1,1.364098343E1,-6.046825562E0,8.179440765E0,1.701598600E1
9.892577084E-1,1.292876450E1,-6.054010620E0,8.161627808E0,1.644433533E1
9.992617083E-1,1.157872192E1,-6.143075409E0,7.493417358E0,1.509819461E1
1.009266708E0,9.853260040E0,-6.461762695E0,6.008355560E0,1.322654328E1
1.019271708E0,8.347092133E0,-6.699468384E0,4.104464722E0,1.146313458E1
1.029275708E0,6.399492188E0,-7.025640106E0,1.064137115E0,9.562714414E0
1.039280708E0,4.619543610E0,-7.342680817E0,-2.359094238E0,8.990020599E0
1.049285708E0,3.426225128E0,-7.394922180E0,-5.177732849E0,9.655713860E0
1.059289708E0,2.711012421E0,-7.321125641E0,-6.967411194E0,1.046390404E1
1.069294708E0,2.139800262E0,-7.226971436E0,-7.795189819E0,1.084310129E1
1.079299708E0,1.473984833E0,-7.116950226E0,-8.594976654E0,1.125598665E1
1.089303708E0,9.154962158E-1,-6.912325745E0,-9.431586914E0,1.172916076E1
1.099308708E0,4.068539429E-1,-6.596632233E0,-1.012689102E1,1.209276679E1
1.109313708E0,7.349716187E-2,-6.179000702E0,-1.049991531E1,1.218333588E1
1.119317708E0,-2.600093079E-1,-5.895041199E0,-9.705517273E0,1.135852900E1
1.129322708E0,-1.610650635E-1,-5.662724304E0,-8.031997375E0,9.828803098E0
1.139327708E0,4.939727783E-3,-5.291645966E0,-6.411167908E0,8.312918583E0
1.149331708E0,2.092648315E-1,-5.032385101E0,-5.319787445E0,7.325901312E0
1.159336708E0,2.119592285E-1,-4.696633301E0,-5.123994598E0,6.954035643E0
1.169341708E0,1.413061523E-1,-4.315226440E0,-5.622757416E0,7.089185258E0
1.179345708E0,-6.438111877E-1,-3.552861786E0,-5.669310608E0,6.721488115E0
1.189350708E0,-1.189127197E0,-2.883304138E0,-5.350922699E0,6.193532108E0
1.199355708E0,-1.404978333E0,-2.350412292E0,-4.621339874E0,5.371702178E0
1.209359708E0,-1.391356659E0,-1.973196716E0,-3.529959412E0,4.276680030E0
1.219364708E0,-8.870553589E-1,-1.756148071E0,-2.357447662E0,3.070583452E0
1.229369708E0,-4.819976807E-1,-1.454824677E0,-1.223256226E0,1.960916214E0
1.239373708E0,-1.685494995E-1,-1.124910736E0,-4.899311829E-1,1.238493303E0
1.249378708E0,-1.082249451E-1,-7.964936829E-1,-1.603166199E-1,8.196439740E-1
1.259383708E0,-2.249821472E-1,-3.643423462E-1,-1.115180969E-1,4.424913533E-1
1.269387833E0,-3.466790771E-1,2.297721863E-1,8.098159790E-2,4.237212047E-1
1.279392833E0,-3.412902832E-1,6.976991272E-1,1.423539734E-1,7.896377544E-1
1.289397833E0,-4.138893127E-1,8.502319336E-1,1.836680603E-1,9.632926142E-1
1.299401833E0,-4.721182251E-1,9.961784363E-1,5.658233643E-1,1.239121937E0
1.309406833E0,6.032455444E-2,1.139580231E0,1.413211212E0,1.816438296E0
1.319411833E0,3.882925415E-1,9.961784363E-1,2.138303375E0,2.390707824E0
1.329415833E0,4.830455017E-1,1.006506958E0,2.216291199E0,2.481599462E0
1.339420833E0,4.396357727E-1,9.398954773E-1,2.094444580E0,2.337387691E0
1.349425833E0,3.134481812E-1,8.916957092E-1,1.691332855E0,1.937518471E0
1.359429833E0,1.634600830E-1,9.412426758E-1,1.300645294E0,1.613795264E0
1.369434833E0,5.613327026E-2,1.200353851E0,1.372196503E0,1.823985623E0
1.379439833E0,-1.628613281E-1,1.355281677E0,1.293310547E0,1.880416020E0
1.389443833E0,-5.593867493E-1,1.404379578E0,8.818162537E-1,1.750084409E0
1.399448833E0,-8.048762512E-1,1.394799500E0,8.545729065E-1,1.823070563E0
1.409453833E0,-9.057664490E-1,1.395547943E0,9.801617432E-1,1.930980053E0
1.419457833E0,-6.041436768E-1,1.324745178E0,1.054557037E0,1.797784724E0
1.429462833E0,-2.357597351E-1,9.809101868E-1,9.265731812E-1,1.369782942E0
1.439467833E0,-1.917512512E-1,1.025966492E0,1.117126923E0,1.528838888E0
1.449471833E0,-2.377056885E-1,1.083147583E0,1.258133698E0,1.677084697E0
1.459476833E0,-3.960763550E-1,1.118474121E0,1.175804901E0,1.670442458E0
1.469481833E0,-6.107299805E-1,1.163979492E0,1.200204163E0,1.779980168E0
1.479485833E0,-5.776487732E-1,1.172661438E0,1.155896301E0,1.744966823E0
1.489490833E0,-5.670208740E-1,1.109343109E0,1.356928253E0,1.842120813E0
1.499495833E0,-3.222798157E-1,9.325607300E-1,1.308279419E0,1.638636272E0
1.509499833E0,-7.289840698E-2,1.038839722E0,1.825304260E0,2.101484663E0
1.519504833E0,8.711883545E-2,1.414259033E0,2.429148560E0,2.812202167E0
1.529509833E0,2.302212524E-1,2.063459015E0,2.969375153E0,3.623265617E0
1.539513833E0,4.465214539E-1,3.028502197E0,3.621119843E0,4.741699683E0
1.549518833E0,2.143542480E-1,4.397405548E0,4.709656219E0,6.447013650E0
1.559523833E0,-1.025966492E0,6.236930237E0,6.360423431E0,8.966989029E0
1.569527833E0,-2.598147125E0,9.598938904E0,6.817872162E0,1.205708826E1
1.579532833E0,-4.242777100E0,1.148142426E1,9.729467468E0,1.563607360E1
1.589537833E0,-4.008514252E0,1.045800247E1,1.207239532E1,1.646756603E1
1.599541833E0,-3.771856384E0,1.047491730E1,1.081695602E1,1.552280035E1
1.609546833E0,-4.179608459E0,1.096784225E1,1.274494675E1,1.732617552E1
1.619551833E0,-3.074606323E0,1.019065842E1,1.667846695E1,1.978570147E1
1.629555833E0,-1.458417206E0,9.446705475E0,1.794812668E1,2.033476030E1
1.639560833E0,-8.467890930E-1,9.221423950E0,1.759965134E1,1.988716769E1
1.649565833E0,-2.888992310E-2,9.635762329E0,1.818702988E1,2.058195341E1
1.659569833E0,5.287005615E-1,1.057026901E1,1.917302948E1,2.190011805E1
1.669574833E0,3.132984924E-1,1.176298874E1,2.030437683E1,2.346771780E1
1.679579833E0,1.865121460E-1,1.268896317E1,2.124711639E1,2.474842476E1
1.689583833E0,9.355545044E-2,1.325418777E1,2.224359421E1,2.589323714E1
1.699588833E0,2.656974792E-1,1.308878174E1,2.285881485E1,2.634221363E1
1.709593833E0,1.001118164E0,1.242131973E1,2.268592438E1,2.588324915E1
1.719597833E0,1.199006653E0,1.159279266E1,2.163301392E1,2.457270335E1
1.729602833E0,1.078956299E0,1.093640762E1,2.031799850E1,2.309957189E1
1.739607833E0,7.235952759E-1,1.047342041E1,1.884595963E1,2.157281436E1
1.749611833E0,-6.346801758E-2,1.045830185E1,1.793914536E1,2.076518822E1
1.759616833E0,-1.007854156E0,1.068792435E1,1.797611847E1,2.093772509E1
1.769621833E0,-1.697320404E0,1.092069031E1,1.827040649E1,2.135298871E1
1.779625833E0,-1.820065155E0,1.064316742E1,1.845721802E1,2.138360463E1
1.789630833E0,-1.289568329E0,1.024559418E1,1.837653580E1,2.107919008E1
1.799635833E0,-8.095166016E-1,9.622140656E0,1.832878510E1,2.071678718E1
1.809639833E0,-5.965095520E-1,8.845555573E0,1.772733582E1,1.982064863E1
1.819644833E0,-6.471043396E-1,8.108488312E0,1.682680847E1,1.868977822E1
1.829649833E0,-5.339396667E-1,7.679031372E0,1.663625473E1,1.833078247E1
1.839653833E0,-2.604583740E-1,7.431146851E0,1.684522018E1,1.841334367E1
1.849489292E0,1.831890564E0,3.150199127E0,6.590944061E0,7.531276200E0
1.859493292E0,1.822160797E0,3.087329865E0,5.969436493E0,6.963192350E0
1.869498292E0,1.732497253E0,3.048560486E0,5.597160645E0,6.604806965E0
1.879503292E0,1.742825775E0,2.821183319E0,5.245990906E0,6.206201542E0
1.889507292E0,1.970951385E0,2.525997162E0,4.376598816E0,5.424014032E0
1.899512292E0,2.391726379E0,2.268981628E0,3.572471008E0,4.861191398E0
1.909517292E0,2.924468536E0,1.902094574E0,3.222798157E0,4.749411326E0
1.919521292E0,3.532354431E0,1.601669312E0,3.028053131E0,4.920566855E0
1.929526292E0,3.837420044E0,1.351240082E0,2.679577789E0,4.871527428E0
1.939531292E0,3.929179230E0,8.731343079E-1,2.370320892E0,4.671106301E0
1.949535292E0,4.210144958E0,2.359094238E-1,2.216440887E0,4.763778336E0
1.959540292E0,4.666695557E0,-2.655477905E-1,2.058369598E0,5.107391551E0
1.969545292E0,5.176984406E0,-7.568261719E-1,2.056872711E0,5.621803869E0
1.979549292E0,5.630690918E0,-1.266216888E0,2.155367889E0,6.160649005E0
1.989554292E0,6.063890076E0,-1.681603088E0,2.349514160E0,6.717050587E0
1.999559292E0,6.362070007E0,-2.001936951E0,2.649640045E0,7.176648152E0
2.009563292E0,6.487958221E0,-2.277813263E0,2.825673981E0,7.434142088E0
2.019568292E0,6.651118927E0,-2.663561096E0,2.770887909E0,7.681781076E0
2.029573292E0,7.014563141E0,-3.191962280E0,2.622396698E0,8.140619368E0
2.039577292E0,7.408543854E0,-3.752546539E0,2.431693268E0,8.653395849E0
2.049582292E0,7.332651672E0,-4.251459045E0,2.343975677E0,8.794140466E0
2.059587292E0,7.370971985E0,-4.823569336E0,3.174897766E0,9.363654466E0
2.069591292E0,7.844138031E0,-5.127886505E0,4.487218781E0,1.039042125E1
2.079596292E0,8.190966797E0,-5.461392975E0,5.076842651E0,1.107669091E1
2.089601292E0,8.222251740E0,-5.777834930E0,6.230942688E0,1.182427363E1
2.099606292E0,8.458610229E0,-5.522316284E0,8.770711212E0,1.337794601E1
2.109610292E0,8.673862610E0,-5.244494019E0,1.066397415E1,1.471261210E1
2.119615292E0,8.414452057E0,-5.442083130E0,1.098400864E1,1.486834617E1
2.129620292E0,8.222551117E0,-5.470074921E0,1.079016174E1,1.462735988E1
2.139624292E0,7.884553986E0,-4.958289185E0,9.912237396E0,1.360159084E1
2.149629292E0,7.037615204E0,-4.816084900E0,8.685538330E0,1.217215172E1
2.159634292E0,6.230044556E0,-4.932243347E0,7.816445618E0,1.114617879E1
2.169638292E0,5.723048859E0,-4.771327972E0,7.443271637E0,1.053191110E1
2.179643292E0,5.411995697E0,-4.660558319E0,7.242239685E0,1.017155529E1
2.189648292E0,4.966372375E0,-4.826263733E0,6.657256165E0,9.606078067E0
2.199652292E0,4.759053497E0,-5.463937683E0,6.024222565E0,9.423081381E0
2.209657292E0,4.801415405E0,-6.039790192E0,5.849685516E0,9.682534590E0
2.219662292E0,5.075046387E0,-6.271957397E0,6.332281952E0,1.025628296E1
2.229666292E0,5.178630981E0,-6.447691956E0,6.658603363E0,1.061734191E1
2.239671292E0,4.868625641E0,-6.527775421E0,6.675667877E0,1.052995295E1
2.249676292E0,4.459077301E0,-6.292614441E0,6.841522980E0,1.030954914E1
2.259680292E0,4.218976593E0,-6.146518250E0,7.069648590E0,1.027420952E1
2.269685292E0,4.030219116E0,-6.201154633E0,7.472910004E0,1.051386555E1
2.279690292E0,4.299209747E0,-6.244714050E0,7.961344299E0,1.099375555E1
2.289694292E0,4.909041595E0,-6.479875031E0,8.477620697E0,1.174553202E1
2.299699292E0,5.405110016E0,-6.669380951E0,9.079069977E0,1.249501373E1
2.309704292E0,5.841602325E0,-6.671626282E0,9.640702057E0,1.309878052E1
2.319708292E0,6.091432800E0,-6.256838837E0,1.034992722E1,1.354158703E1
2.329710333E0,6.535409546E0,-5.646707611E0,1.112890732E1,1.408720919E1
2.339715333E0,6.957082672E0,-4.873415680E0,1.201551361E1,1.471474590E1
2.349719333E0,6.758445740E0,-3.767216034E0,1.309027863E1,1.520604814E1
2.359724333E0,6.100563812E0,-2.545007629E0,1.395562912E1,1.544194051E1
2.369729333E0,6.351591797E0,-1.930385742E0,1.476140350E1,1.618542989E1
2.379734333E0,7.152276764E0,-1.409468994E0,1.540132278E1,1.703943688E1
2.389738333E0,8.154891815E0,-1.313069458E0,1.556927353E1,1.762466142E1
2.399743333E0,8.720415802E0,-1.455124054E0,1.557541077E1,1.790967499E1
2.409748333E0,8.873996429E0,-1.346150665E0,1.547047897E1,1.788562702E1
2.419752333E0,9.049431610E0,-1.159189453E0,1.547766403E1,1.796646923E1
2.429757333E0,9.612261200E0,-8.041278076E-1,1.539623337E1,1.816827424E1
2.439762333E0,1.015892441E1,-5.794450378E-1,1.522483978E1,1.831216121E1
2.449766333E0,1.084180435E1,-6.481521606E-1,1.510838196E1,1.860720366E1
2.459771333E0,1.176044403E1,-7.951464844E-1,1.542931458E1,1.941659213E1
2.469776333E0,1.277982422E1,-1.211131439E0,1.609123810E1,2.058442834E1
2.479780333E0,1.426144318E1,-1.673669586E0,1.708307556E1,2.231639312E1
2.489785333E0,1.590412720E1,-1.731150055E0,1.834929245E1,2.434408914E1
2.499790333E0,1.802222260E1,-1.589694214E0,1.949500992E1,2.659667360E1
2.509794333E0,2.009825546E1,-2.065704346E0,2.016845947E1,2.854774535E1
2.519799333E0,2.216336105E1,-2.731220398E0,2.088142685E1,3.057299667E1
2.529804333E0,2.426753540E1,-3.415896606E0,2.187251587E1,3.284796150E1
2.539808333E0,2.592698456E1,-4.668940887E0,2.250375320E1,3.464717082E1
2.549813333E0,2.727837433E1,-6.166726227E0,2.257395721E1,3.594053092E1
2.559818333E0,2.859219223E1,-7.630831604E0,2.254267227E1,3.720100967E1
2.569822333E0,2.964749771E1,-9.099727020E0,2.220467514E1,3.814219121E1
2.579827333E0,3.060849930E1,-1.057820251E1,2.204016724E1,3.917330174E1
2.589832333E0,3.170571762E1,-1.190399551E1,2.191996719E1,4.034157410E1
2.599836333E0,3.196662506E1,-1.287008652E1,2.148392395E1,4.060865958E1
2.609841333E0,3.173849945E1,-1.373364075E1,2.138842255E1,4.066214277E1
2.619846333E0,3.159390015E1,-1.451306992E1,2.133737869E1,4.079322804E1
2.629850333E0,3.149809937E1,-1.526420792E1,2.137989029E1,4.101494869E1
2.639855333E0,3.129901337E1,-1.603989487E1,2.166714294E1,4.130825037E1
2.649860333E0,3.053545120E1,-1.662472870E1,2.233220993E1,4.132218514E1
2.659865333E0,2.975946487E1,-1.676947769E1,2.238864258E1,4.084228750E1
2.669869333E0,2.875280823E1,-1.697320404E1,2.128603546E1,3.959682995E1
2.679874333E0,2.669114548E1,-1.670256683E1,1.920057220E1,3.687892296E1
2.689879333E0,2.427217575E1,-1.573542801E1,1.716839813E1,3.363771848E1
2.699883333E0,2.172028244E1,-1.428120209E1,1.584859268E1,3.044505366E1
2.709888333E0,1.915895874E1,-1.289807831E1,1.403526352E1,2.702618630E1
2.719893333E0,1.683459229E1,-1.214888626E1,1.114447495E1,2.356264536E1
2.729897333E0,1.437176376E1,-1.132005981E1,7.972121887E0,1.995610371E1
2.739902333E0,1.189052353E1,-9.979896698E0,4.912484436E0,1.628236442E1
2.749907333E0,9.569001160E0,-8.718769226E0,2.030826874E0,1.310370092E1
2.759911333E0,7.736062775E0,-7.767198029E0,-1.345701599E-1,1.096330888E1
2.769916333E0,6.129154358E0,-6.854845276E0,-1.485211487E0,9.314574068E0
2.779921333E0,4.499792633E0,-6.147865448E0,-2.018702087E0,7.881595107E0
2.789925333E0,3.152294769E0,-5.931415558E0,-1.641636200E0,6.914739492E0
2.799930333E0,2.118993530E0,-5.135969696E0,-7.044351196E-1,5.600405980E0
2.809935333E0,1.669328613E0,-4.418062592E0,2.338137817E-1,4.728700029E0
2.819939333E0,1.089883575E0,-4.489464111E0,1.281335449E-1,4.621639581E0
2.829944333E0,4.664300537E-1,-4.548591156E0,-7.033872986E-1,4.626228722E0
2.839949333E0,9.220825195E-2,-4.294569397E0,-1.739832001E0,4.634527382E0
2.849953333E0,-2.706372070E-1,-3.985761566E0,-3.194806366E0,5.115303263E0
2.859958333E0,-1.018931122E0,-3.447929993E0,-5.069956970E0,6.215376541E0
2.869963333E0,-1.651815033E0,-2.456691284E0,-7.053332520E0,7.649400277E0
2.879967333E0,-1.942510529E0,-1.627565460E0,-8.519383850E0,8.888319170E0
2.889972333E0,-1.972448273E0,-7.490423584E-1,-8.710536346E0,8.962424900E0
2.899977333E0,-2.181713104E0,-6.451583862E-2,-7.713010712E0,8.015894747E0
2.909981333E0,-2.221979370E0,8.861572266E-2,-6.567742310E0,6.933994816E0
2.919986333E0,-1.775158539E0,-2.722837830E-1,-5.092859344E0,5.400235421E0
2.929991333E0,-1.106499023E0,-7.788304138E-1,-3.704197083E0,3.943601517E0
2.939996333E0,-7.068301392E-1,-1.225950623E0,-2.893183594E0,3.220725863E0
2.950000333E0,-5.152285767E-1,-1.618733826E0,-2.596799927E0,3.103083876E0
2.960005333E0,-4.978646851E-1,-1.703906708E0,-2.713706818E0,3.242741434E0
2.970010333E0,-9.774673462E-1,-1.731599121E0,-2.823278961E0,3.453227769E0
2.980014333E0,-1.390159149E0,-1.764830017E0,-2.743943939E0,3.546321445E0
2.990019333E0,-1.413660278E0,-1.795366516E0,-2.477947083E0,3.370756303E0
3.000024333E0,-1.005758514E0,-1.916315002E0,-2.087409210E0,3.006840632E0
3.010028333E0,-4.185296631E-1,-2.025438080E0,-1.292113037E0,2.438672302E0
3.020033333E0,-7.334747314E-3,-1.940414886E0,-3.677851868E-1,1.974975867E0
3.030038333E0,1.252894592E-1,-1.839824066E0,1.202000427E-1,1.847998402E0
3.040042333E0,1.854643250E-1,-1.861828308E0,2.417472839E-1,1.886595721E0
3.050047333E0,3.712280273E-1,-1.821262665E0,3.586541748E-1,1.892997823E0
3.060052333E0,4.564009094E-1,-1.466051331E0,5.233117676E-1,1.622178628E0
3.070056333E0,4.284091187E-1,-1.139580231E0,5.680686951E-1,1.343458045E0
3.080061333E0,5.001100159E-1,-9.358538818E-1,3.062631226E-1,1.104413698E0
3.090066333E0,5.387297058E-1,-5.339396667E-1,-7.080276489E-2,7.617967545E-1
3.100070333E0,5.453160095E-1,-2.345622253E-1,-5.264552307E-1,7.934381499E-1
3.110075333E0,4.123924255E-1,-8.951385498E-2,-9.852511597E-1,1.071820923E0
3.120080333E0,4.541555786E-1,1.404080200E-1,-1.324445801E0,1.407170345E0
3.130085333E0,4.890330505E-1,3.755690002E-1,-1.347946930E0,1.482284158E0
3.140089333E0,4.475692749E-1,4.966671753E-1,-1.120120697E0,1.304479557E0
3.150094333E0,3.773652649E-1,7.138655090E-1,-7.372169495E-1,1.093388009E0
3.160099333E0,1.892065430E-1,8.342152405E-1,-3.278182983E-1,9.160671482E-1
3.170103333E0,2.674937439E-1,9.132508850E-1,7.050338745E-2,9.542278604E-1
3.180108333E0,2.454895020E-1,1.073118439E0,2.505789185E-1,1.128998704E0
3.190113333E0,2.145039368E-1,1.047970734E0,3.716770935E-1,1.132430333E0
3.200117333E0,3.872447205E-1,9.859996033E-1,3.052153015E-1,1.102411027E0
3.210122333E0,3.890409851E-1,1.010997620E0,3.514691162E-1,1.138858909E0
3.220127333E0,2.372566223E-1,9.256750488E-1,6.400689697E-1,1.150153593E0
3.230131333E0,2.213896179E-1,8.833131409E-1,8.078700256E-1,1.217337031E0
3.240136333E0,1.781295776E-1,9.081614685E-1,1.054706726E0,1.403172718E0
3.250141333E0,-1.115180969E-1,8.882528687E-1,1.217268677E0,1.511017034E0
3.260145333E0,-3.353027344E-1,8.222401428E-1,1.433868256E0,1.686560094E0
3.270150333E0,-1.276844788E-1,8.764274597E-1,1.829345856E0,2.032470093E0
3.280155333E0,2.649490356E-2,9.470805359E-1,2.329006805E0,2.514346082E0
3.290159333E0,2.465373230E-1,9.734257507E-1,2.870430908E0,3.041005088E0
3.300164333E0,4.189787292E-1,1.029559021E0,3.336112518E0,3.516416029E0
3.310169333E0,4.405339050E-1,1.092877350E0,3.951482849E0,4.123429123E0
3.320173333E0,3.025209045E-1,1.227148132E0,4.521497498E0,4.694821728E0
3.330177667E0,1.330732727E-1,1.469494171E0,5.189558258E0,5.395242027E0
3.340182667E0,3.144960022E-1,1.818568268E0,6.042783966E0,6.318333351E0
3.350186667E0,6.411167908E-1,2.852318573E0,6.924300842E0,7.516162195E0
3.360191667E0,6.381230164E-1,4.248165894E0,8.610693970E0,9.622794037E0
3.370196667E0,2.276765442E-1,5.641618195E0,1.007809250E1,1.155195399E1
3.380200667E0,-7.593708801E-1,7.020999756E0,1.182885178E1,1.377653135E1
3.390205667E0,-1.161584473E0,7.492818604E0,1.466814743E1,1.651200043E1
3.400210667E0,-7.529342651E-1,7.677085419E0,1.695434326E1,1.862670948E1
3.410215667E0,-1.401236115E0,8.360564117E0,1.835243591E1,2.021569685E1
3.420219667E0,-1.594334564E0,7.596403198E0,2.004676254E1,2.149697497E1
3.430224667E0,-1.445993042E-1,7.070097656E0,2.218461685E1,2.328442429E1
3.440229667E0,9.199868774E-1,7.006330261E0,2.462065109E1,2.561467353E1
3.450233667E0,1.639540558E0,6.499783630E0,2.517644531E1,2.605357325E1
3.460238667E0,3.007096710E0,6.072871399E0,2.450239700E1,2.542223154E1
3.470243667E0,3.795806580E0,6.345753937E0,2.417293213E1,2.527859546E1
3.480247667E0,2.934198303E0,7.296576691E0,2.428549805E1,2.552714176E1
3.490252667E0,1.462159424E0,8.190667419E0,2.355771149E1,2.498380903E1
3.500257667E0,3.980223083E-1,8.966953125E0,2.283920563E1,2.453964107E1
3.510261667E0,-1.465452576E-1,9.175469513E0,2.219793915E1,2.401997541E1
3.520266667E0,1.601669312E-1,8.476273499E0,2.124891266E1,2.287769995E1
3.530271667E0,1.059347076E0,7.570507050E0,2.043864761E1,2.182139110E1
3.540275667E0,1.452878723E0,6.934329987E0,2.001847137E1,2.123522981E1
3.550280667E0,1.127754822E0,6.406228180E0,1.980830841E1,2.084899692E1
3.560285667E0,5.939648438E-1,6.060596924E0,1.985920258E1,2.077189342E1
3.570289667E0,4.240681458E-1,5.961353302E0,2.010439270E1,2.097389265E1
3.580294667E0,3.038681030E-1,5.883814545E0,2.010708710E1,2.095248341E1
3.590299667E0,2.125579834E-2,5.691913605E0,1.964125580E1,2.044938292E1
3.600304667E0,-5.114863586E-1,5.436394958E0,1.889371033E1,1.966693414E1
3.610308667E0,-5.054988098E-1,5.014123077E0,1.831860626E1,1.899916563E1
3.620313667E0,-8.816665649E-2,4.541106720E0,1.791010574E1,1.847704823E1
3.630318667E0,5.010081482E-1,4.116888885E0,1.761596741E1,1.809757141E1
3.640322667E0,8.202941895E-1,4.017645264E0,1.706406509E1,1.754983400E1
3.650327667E0,6.358776855E-1,3.893703003E0,1.616698059E1,1.664140994E1
3.660332667E0,3.288661194E-1,3.968098297E0,1.534548889E1,1.585364268E1
3.670336667E0,4.640350342E-2,4.022435303E0,1.467383560E1,1.521524204E1
3.680341667E0,-3.243754578E-1,3.936663666E0,1.366822678E1,1.422754243E1
3.690346667E0,-7.045848083E-1,3.664978638E0,1.269734573E1,1.323446625E1
3.700350667E0,-6.343807983E-1,3.543281708E0,1.216684891E1,1.268816364E1
3.710355667E0,-5.456153870E-1,3.213517456E0,1.161569504E1,1.206435915E1
3.720360667E0,-3.332070923E-1,2.911295929E0,1.148142426E1,1.184946302E1
3.730364667E0,-3.188369751E-2,2.700534210E0,1.097607513E1,1.130345642E1
3.740369667E0,-8.023315430E-2,2.401456146E0,1.076815750E1,1.103297988E1
3.750374667E0,-8.711883545E-2,2.186652832E0,1.052910461E1,1.075411941E1
3.760378667E0,-3.697311401E-1,1.936672668E0,9.918973389E0,1.011303294E1
3.770383667E0,-5.511538696E-1,1.584006042E0,9.313931580E0,9.463729032E0
3.780388667E0,-5.246589661E-1,1.550176392E0,8.569230194E0,8.724105685E0
3.790393667E0,-4.558021545E-1,1.525627441E0,7.806266785E0,7.967000427E0
3.800397667E0,-5.525010681E-1,1.644480286E0,7.254514160E0,7.459058154E0
3.810402667E0,-7.867639160E-1,1.828447723E0,6.624624023E0,6.917214901E0
3.820407667E0,-9.051676941E-1,1.743424530E0,6.143225098E0,6.449656754E0
3.830411667E0,-3.523672485E-1,1.485361176E0,6.223607941E0,6.408100834E0
3.840416667E0,9.984237671E-2,1.732197876E0,6.422693939E0,6.652929837E0
3.849593833E0,1.249451752E0,5.051545258E0,5.885012054E0,7.855737142E0
3.859598833E0,1.556613007E0,5.046006775E0,5.839356995E0,7.872948529E0
3.869603833E0,1.427281952E0,4.919370117E0,5.665119324E0,7.637467713E0
3.879607833E0,1.366508331E0,5.047204285E0,5.486540680E0,7.579165175E0
3.889612833E0,9.172924805E-1,5.055137787E0,4.877307587E0,7.084064711E0
3.899617833E0,4.680766296E-1,4.693340149E0,4.720284119E0,6.672901891E0
3.909621833E0,8.307723999E-1,4.445006561E0,4.547543335E0,6.413144041E0
3.919626833E0,1.595681763E0,4.191583557E0,4.009562073E0,6.015992106E0
3.929631833E0,2.084116058E0,3.588338013E0,3.353027344E0,5.335025942E0
3.939635833E0,2.213447113E0,3.051554260E0,2.741698608E0,4.661356325E0
3.949640833E0,2.139051819E0,2.687960358E0,2.066452789E0,4.008852791E0
3.959645833E0,1.937870178E0,2.259102173E0,1.412911835E0,3.294723556E0
3.969650833E0,1.712438965E0,1.807790680E0,9.478289795E-1,2.664382504E0
3.979654833E0,1.712888031E0,1.314117279E0,8.393046570E-1,2.316316459E0
3.989659833E0,2.009720764E0,8.937913513E-1,1.069825287E0,2.445887707E0
3.999664583E0,2.320773926E0,5.123844910E-1,1.378782806E0,2.747648360E0
4.009668583E0,2.549049225E0,1.531315613E-1,1.663640442E0,3.047753393E0
4.019673583E0,2.587818604E0,-1.776805115E-1,1.871707764E0,3.198697460E0
4.029678583E0,2.579436035E0,-5.242098999E-1,1.850601654E0,3.217609790E0
4.039682583E0,2.864143982E0,-8.674461365E-1,1.814676361E0,3.499833402E0
4.049687583E0,3.248095551E0,-1.132095795E0,1.865271149E0,3.912927555E0
4.059692583E0,3.707490234E0,-1.452130280E0,1.904639282E0,4.413821132E0
4.069696583E0,4.188889160E0,-1.874551849E0,1.847009125E0,4.946936399E0
4.079701583E0,4.397405548E0,-2.122436371E0,1.549727325E0,5.122847498E0
4.089706583E0,4.140390015E0,-2.226170654E0,1.179996185E0,4.846757293E0
4.099710583E0,3.794160004E0,-2.327210541E0,8.723858643E-1,4.535704590E0
4.109715583E0,3.532803497E0,-2.400707703E0,1.033151550E0,4.394485197E0
4.119720583E0,3.498973846E0,-2.266736298E0,1.793121185E0,4.538303098E0
4.129724583E0,3.827839966E0,-2.023941193E0,2.768193512E0,5.139220960E0
4.139729583E0,4.596192169E0,-1.880539398E0,4.014501801E0,6.385736887E0
4.149734583E0,5.379213867E0,-1.797611847E0,5.486540680E0,7.891101242E0
4.159738583E0,5.923931122E0,-1.873953094E0,6.359674988E0,8.891013783E0
4.169743583E0,6.250102844E0,-2.142195282E0,6.625821533E0,9.357045323E0
4.179748583E0,6.528374176E0,-2.062411194E0,6.671775970E0,9.559592246E0
4.189753583E0,6.363716583E0,-1.670077057E0,6.232140198E0,9.062318554E0
4.199757583E0,5.956114197E0,-1.462608490E0,5.733826447E0,8.395908863E0
4.209762583E0,5.647755432E0,-1.275946655E0,5.809269562E0,8.201999398E0
4.219767583E0,6.106251984E0,-9.006770325E-1,7.106322327E0,9.412616502E0
4.229771583E0,7.353608093E0,-3.773652649E-1,9.120833130E0,1.172209681E1
4.239776583E0,8.542136536E0,1.673519897E-1,1.114851654E1,1.404583655E1
4.249781583E0,9.334289246E0,6.981481934E-1,1.288490570E1,1.592599013E1
4.259785583E0,1.002749771E1,1.490151215E0,1.409094772E1,1.735874617E1
4.269790583E0,1.089419540E1,2.079026642E0,1.485166580E1,1.853585235E1
4.279795583E0,1.132095795E1,2.930605774E0,1.525118500E1,1.921851146E1
4.289799583E0,1.133053802E1,3.691323853E0,1.521481064E1,1.932608151E1
4.299804583E0,1.078641953E1,4.300706635E0,1.477068420E1,1.878872097E1
4.309809583E0,1.019470001E1,5.004393311E0,1.413824936E1,1.813466172E1
4.319813583E0,1.003902374E1,5.431455231E0,1.350656296E1,1.768360672E1
4.329818583E0,1.034274216E1,5.781277771E0,1.302366714E1,1.760714042E1
4.339823583E0,1.099239120E1,6.101761322E0,1.300615356E1,1.808933902E1
4.349827583E0,1.149474655E1,6.445895691E0,1.359892090E1,1.893698548E1
4.359832583E0,1.191507248E1,6.889123993E0,1.469898331E1,2.013675972E1
4.369837583E0,1.213062424E1,7.478897552E0,1.595277603E1,2.139104991E1
4.379841583E0,1.234003876E1,7.807913361E0,1.664598450E1,2.214337073E1
4.389846583E0,1.297816177E1,7.959997101E0,1.661380142E1,2.253469846E1
4.399851583E0,1.377944550E1,8.126600647E0,1.615695145E1,2.273679477E1
4.409856583E0,1.408151733E1,8.312214661E0,1.545326477E1,2.249856518E1
4.419860583E0,1.441262878E1,8.262068939E0,1.471500000E1,2.219272125E1
4.429865583E0,1.508592865E1,8.244405670E0,1.439855804E1,2.242485099E1
4.439870583E0,1.617730911E1,8.033344574E0,1.474643463E1,2.331731737E1
4.449874583E0,1.761551834E1,7.942932587E0,1.576551544E1,2.493888814E1
4.459879583E0,1.910447205E1,8.295299835E0,1.699820206E1,2.688367022E1
4.469884583E0,2.018492523E1,9.072483673E0,1.856574234E1,2.888646665E1
4.479888583E0,2.175441147E1,9.930798798E0,2.027668442E1,3.135313563E1
4.489893583E0,2.343212265E1,1.057101746E1,2.114502869E1,3.328547762E1
4.499898583E0,2.471959534E1,1.023796005E1,2.095926498E1,3.398771849E1
4.509902583E0,2.569302109E1,9.278904419E0,1.983779709E1,3.376044421E1
4.519907583E0,2.611454453E1,8.233179016E0,1.874656631E1,3.318415919E1
4.529912583E0,2.581262238E1,7.562274170E0,1.788331146E1,3.230003550E1
4.539916583E0,2.490386215E1,6.482120361E0,1.691602295E1,3.079565013E1
4.549921583E0,2.352507935E1,5.364095306E0,1.587329132E1,2.888190184E1
4.559926583E0,2.236484207E1,4.598437500E0,1.544009216E1,2.756316807E1
4.569930583E0,2.157268936E1,4.093238068E0,1.529070282E1,2.675707602E1
4.579935583E0,2.067919739E1,3.503763885E0,1.511107635E1,2.585053567E1
4.589940583E0,1.960832428E1,2.911295929E0,1.487846008E1,2.478569344E1
4.599944583E0,1.867276978E1,2.359243927E0,1.450528610E1,2.376219030E1
4.609949583E0,1.784289551E1,1.790875854E0,1.403197037E1,2.276998790E1
4.619954583E0,1.685390213E1,1.403032379E0,1.352407654E1,2.165463376E1
4.629958583E0,1.580263824E1,1.039288788E0,1.284194504E1,2.038918951E1
4.639963583E0,1.460961914E1,8.789721680E-1,1.187226151E1,1.884579945E1
4.649968583E0,1.309761337E1,9.928852844E-1,1.047551605E1,1.680088491E1
4.659972583E0,1.155626862E1,9.771679688E-1,9.275461578E0,1.485046764E1
4.669977583E0,9.839788055E0,6.652166748E-1,7.956853638E0,1.267183736E1
4.679982583E0,8.381670227E0,-6.065386963E-1,6.610702972E0,1.069213163E1
4.689986583E0,7.500901794E0,-1.843566284E0,5.707630920E0,9.604130106E0
4.699991583E0,7.095544739E0,-1.782493286E0,5.584287415E0,9.203711392E0
4.709996583E0,6.690786438E0,-1.638941803E0,5.193001099E0,8.626703530E0
4.720001583E0,5.763614502E0,-2.397564240E0,4.226760406E0,7.538771116E0
4.730005583E0,4.801565094E0,-3.088227997E0,3.584296417E0,6.740872371E0
4.740010583E0,4.392765198E0,-3.245850220E0,3.473975830E0,6.473054750E0
4.750015583E0,4.121080170E0,-3.440595245E0,3.589984589E0,6.458249512E0
4.760019583E0,3.736978912E0,-3.899840240E0,3.657793579E0,6.523282851E0
4.770024583E0,3.149450684E0,-4.268673248E0,3.439547424E0,6.322269956E0
4.780029583E0,2.023192749E0,-4.091890869E0,2.997965698E0,5.461197498E0
4.790033583E0,1.548080750E0,-3.847598877E0,2.393372955E0,4.788403202E0
4.800038583E0,1.673669586E0,-3.611090698E0,1.521436157E0,4.260975698E0
4.810043583E0,1.650168457E0,-3.184328156E0,2.977308655E-1,3.598839453E0
4.820047583E0,1.484013977E0,-2.708617401E0,-6.888674927E-1,3.164402650E0
4.830052583E0,6.469546509E-1,-1.826352081E0,-1.553170166E0,2.483233740E0
4.840057583E0,-3.938310242E-1,-1.100361786E0,-2.640209656E0,2.887318126E0
4.850061583E0,-1.222208405E0,-4.273612976E-1,-3.543132019E0,3.772295795E0
4.860066583E0,-1.611997833E0,2.993774414E-3,-3.665727081E0,4.004510084E0
4.870071583E0,-1.469643860E0,1.028361511E-1,-3.595223694E0,3.885365074E0
4.880075583E0,-1.315464478E0,5.343887329E-2,-3.518882446E0,3.757104760E0
4.890080583E0,-1.006656647E0,-2.095642090E-2,-3.365152130E0,3.512555428E0
4.900085583E0,-8.574169922E-1,1.694476318E-1,-3.130140839E0,3.249870469E0
4.910089583E0,-1.081650696E0,4.465214539E-1,-2.962938538E0,3.185648194E0
4.920094583E0,-1.438957672E0,7.367678833E-1,-2.918780365E0,3.336570832E0
4.930099583E0,-1.766626282E0,1.031804352E0,-2.731220398E0,3.412499597E0
4.940104583E0,-1.948647766E0,1.308429108E0,-2.341880035E0,3.315662369E0
4.950108583E0,-1.828447723E0,1.447789307E0,-1.682650909E0,2.875870136E0
4.960113583E0,-1.375938721E0,1.346300354E0,-8.113128662E-1,2.089009472E0
4.970118583E0,-8.134085083E-1,1.335971832E0,2.664459229E-2,1.564341418E0
4.980122583E0,-4.059558105E-1,1.294957123E0,7.691006470E-1,1.559881366E0
4.990127583E0,-1.995350647E-1,1.230141907E0,1.217568054E0,1.742278772E0
5.000132625E0,-8.876541138E-2,1.131796417E0,1.425335999E0,1.822203374E0
5.010136625E0,3.173400879E-2,1.052311707E0,1.663490753E0,1.968646352E0
5.020141625E0,1.865121460E-1,1.057700500E0,1.854942627E0,2.143438658E0
5.030146625E0,3.197351074E-1,1.091979218E0,1.914668427E0,2.227241418E0
5.040150625E0,4.593946838E-1,1.021775208E0,1.869312744E0,2.179311402E0
5.050155625E0,5.899232483E-1,9.807604980E-1,1.850751343E0,2.176047133E0
5.060160625E0,7.602690125E-1,1.022972717E0,1.842967529E0,2.240761358E0
5.070164625E0,1.003962250E0,1.097966766E0,1.773961029E0,2.315255699E0
5.080169625E0,1.196312256E0,1.258582764E0,1.755549316E0,2.469240164E0
5.090174625E0,1.166374512E0,1.495989075E0,1.675166473E0,2.530730236E0
5.100178625E0,9.704319763E-1,1.626517639E0,1.254990234E0,2.272069176E0
5.110183625E0,7.125183105E-1,1.642085266E0,6.403683472E-1,1.901104412E0
5.120188625E0,4.062551880E-1,1.456920319E0,9.310638428E-2,1.515364277E0
5.130193625E0,2.757266235E-1,1.376088409E0,-2.896476746E-1,1.433017884E0
5.140197625E0,2.793191528E-1,1.317859497E0,-4.510121155E-1,1.420628302E0
5.150202625E0,2.207908630E-1,1.238374786E0,-5.598358154E-1,1.376857602E0
5.160207625E0,1.333726501E-1,1.083446960E0,-6.939569092E-1,1.293530739E0
5.170211625E0,9.714797974E-2,9.077124023E-1,-8.731343079E-1,1.263227238E0
5.180216625E0,-1.332229614E-2,7.750881958E-1,-1.020577698E0,1.281607597E0
5.190221625E0,-1.489402771E-1,6.867718506E-1,-1.064137115E0,1.275235892E0
5.200225625E0,-2.586621094E-1,6.033952332E-1,-1.097817078E0,1.279138081E0
5.210230625E0,-3.748205566E-1,5.367837524E-1,-1.043929138E0,1.232239949E0
5.220235625E0,-4.044589233E-1,4.360432434E-1,-7.384144592E-1,9.481437889E-1
5.230239625E0,-2.483335876E-1,5.438191223E-1,-2.140548706E-2,5.982198621E-1
5.240244625E0,1.392105103E-2,7.080276489E-1,9.039701843E-1,1.148328804E0
5.250249625E0,2.347119141E-1,8.369096375E-1,1.599124603E0,1.820084317E0
5.260253625E0,2.948867798E-1,1.179098053E0,2.342179413E0,2.638756304E0
5.270258625E0,4.734654236E-1,1.638492737E0,3.256927185E0,3.676466054E0
5.280263625E0,8.460406494E-1,2.252815247E0,3.915707245E0,4.596055324E0
5.290267625E0,1.042581940E0,3.494183807E0,4.850513306E0,6.068259792E0
5.300272625E0,3.318598938E-1,5.576802979E0,6.349047089E0,8.457024381E0
5.310277625E0,-1.696122894E0,8.448730774E0,9.588460693E0,1.289172072E1
5.320281625E0,-2.885549469E0,9.331744537E0,1.609168716E1,1.882419315E1
5.330286625E0,-3.150348816E0,9.079519043E0,1.739053619E1,1.986940142E1
5.340291625E0,-4.006568298E0,1.019993912E1,1.743649063E1,2.059423592E1
5.350295625E0,-3.072959747E0,9.957144012E0,2.225646744E1,2.457515293E1
5.360300625E0,4.489164734E-1,9.211993561E0,2.612562149E1,2.770578369E1
5.370305625E0,3.215014343E0,8.320597229E0,2.750425461E1,2.891457551E1
5.380310625E0,3.708687744E0,7.892786865E0,2.664384384E1,2.803470820E1
5.390314625E0,3.908671875E0,8.245752869E0,2.488874359E1,2.650886104E1
5.400319625E0,3.465742950E0,8.950487366E0,2.362387390E1,2.549921600E1
5.410324625E0,1.445394287E0,9.869725800E0,2.243025604E1,2.454825937E1
5.420328625E0,-1.661544800E-1,1.026610153E1,2.125654678E1,2.360638111E1
5.430333625E0,-7.680528259E-1,1.074720108E1,2.032548294E1,2.300472762E1
5.440338625E0,-3.378474426E-1,1.041728714E1,2.010529083E1,2.264634036E1
5.450342625E0,9.346563721E-1,9.197623444E0,2.048864365E1,2.247786418E1
5.460347625E0,2.246079254E0,8.372988281E0,2.137614807E1,2.306710886E1
5.470352625E0,3.042722626E0,7.712561646E0,2.183165085E1,2.335300295E1
5.480356625E0,3.191962280E0,7.264243927E0,2.238220596E1,2.374702101E1
5.490361625E0,2.723436584E0,7.356152802E0,2.284100189E1,2.415039251E1
5.500366625E0,1.935475159E0,7.388934631E0,2.279235306E1,2.403817333E1
5.510370625E0,1.259181519E0,7.237749023E0,2.234538254E1,2.352204646E1
5.520375625E0,8.247848511E-1,7.035070496E0,2.171863586E1,2.284450986E1
5.530380625E0,7.203021240E-1,6.635700989E0,2.109039230E1,2.212139259E1
5.540384625E0,7.188052368E-1,6.274502106E0,2.050525909E1,2.145580826E1
5.550389625E0,7.926017761E-1,5.860612793E0,1.979363892E1,2.065824633E1
5.560394625E0,7.723937988E-1,5.492079163E0,1.896017212E1,1.975468685E1
5.570398625E0,4.158352661E-1,5.240901489E0,1.782747757E1,1.858652533E1
5.580403625E0,9.879455566E-2,4.885091400E0,1.683459229E1,1.752932902E1
5.590408625E0,-1.799258423E-1,4.736151123E0,1.591056381E1,1.660149215E1
5.600413625E0,-2.297721863E-1,4.455035706E0,1.526330978E1,1.590184782E1
5.610417625E0,-3.861968994E-2,4.291126556E0,1.468670883E1,1.530080635E1
5.620422625E0,1.207987976E-1,3.996090088E0,1.391192001E1,1.447497312E1
5.630427625E0,2.829116821E-1,3.622317352E0,1.300271072E1,1.350080398E1
5.640431625E0,4.293072510E-1,3.204087067E0,1.203542221E1,1.246201695E1
5.650436625E0,6.075865173E-1,2.753374329E0,1.103041214E1,1.138508777E1
5.660441625E0,7.478448486E-1,2.418370972E0,9.764195251E0,1.008698662E1
5.670445625E0,7.797285461E-1,2.169588318E0,8.168663177E0,8.487764616E0
5.680450625E0,7.207511902E-1,1.979184265E0,6.503675537E0,6.836259805E0
5.690455625E0,6.954537964E-1,1.839674377E0,4.849166107E0,5.232826171E0
5.700459625E0,7.194039917E-1,1.610351257E0,3.482508087E0,3.903669537E0
5.710464625E0,8.741821289E-1,1.594484253E0,2.246827698E0,2.890468670E0
5.720469625E0,8.183482361E-1,1.940115509E0,1.280736694E0,2.464554423E0
5.730473625E0,2.176473999E-1,2.191442871E0,3.432362366E-1,2.228812097E0
5.740478625E0,-3.640429688E-1,2.356100464E0,-6.048921204E-1,2.459599796E0
5.750483625E0,-5.562432861E-1,2.791095886E0,-8.684939575E-1,2.975551141E0
5.760487625E0,-4.965174866E-1,2.980601807E0,-6.804849243E-1,3.097349912E0
5.770492625E0,-1.371148682E-1,2.619552612E0,-1.769320679E-1,2.629098958E0
5.780497625E0,4.197271729E-1,2.550097046E0,8.042774963E-1,2.706663654E0
5.790502625E0,7.261399841E-1,2.511028290E0,1.675166473E0,3.104629618E0
5.800506625E0,7.680528259E-1,2.531086578E0,2.139500885E0,3.402024169E0
5.810511625E0,6.340814209E-1,2.644700317E0,2.472408600E0,3.675500415E0
5.820516625E0,2.543211365E-1,3.059338074E0,3.198099518E0,4.433065442E0
5.830520625E0,-2.761756897E-1,3.505709839E0,3.498075714E0,4.960121792E0
5.840525625E0,-6.771917725E-1,3.753893738E0,4.156855774E0,5.641786669E0
5.850530625E0,-4.391867065E-1,4.139042816E0,5.373675385E0,6.797127889E0
5.860534625E0,-4.724176025E-1,4.471351776E0,5.626050568E0,7.201986538E0
5.870539625E0,-1.340761871E0,4.667294312E0,5.381459198E0,7.248543418E0
5.880544625E0,-2.398013306E0,4.763095093E0,5.410798187E0,7.596991490E0
5.890548625E0,-2.773133240E0,4.630919952E0,6.234385529E0,8.246408339E0
5.901929833E0,7.484436035E-4,4.044589233E0,8.392597504E0,9.316350975E0
5.911934833E0,-2.808160400E-1,4.083807678E0,8.141120453E0,9.112309533E0
5.921939833E0,-3.441343689E-1,3.965104523E0,7.794141998E0,8.751521687E0
5.931944833E0,-1.408570862E-1,3.811224518E0,7.787406006E0,8.671157094E0
5.941948833E0,6.735992432E-2,3.831432495E0,8.217761078E0,9.067304421E0
5.951953833E0,2.454895020E-1,3.798051910E0,8.246651001E0,9.082550090E0
5.961958833E0,1.887574768E-1,3.703448639E0,8.087232513E0,8.896880967E0
5.971962833E0,1.353186035E-1,3.644321594E0,7.875572662E0,8.678942088E0
5.981967833E0,2.007325745E-1,3.589535522E0,7.738906860E0,8.533213828E0
5.991972833E0,3.326083374E-1,3.529360657E0,7.645800476E0,8.427649724E0
6.001976833E0,4.182302856E-1,3.510350189E0,7.516469421E0,8.306310107E0
6.011981833E0,3.948788452E-1,3.455713806E0,7.394622803E0,8.171801124E0
6.021986833E0,3.585044861E-1,3.364852753E0,7.219636688E0,7.973325117E0
6.031990833E0,4.016148376E-1,3.310366058E0,7.145091705E0,7.884932048E0
6.041995833E0,4.843927002E-1,3.211122437E0,7.123237152E0,7.828566351E0
6.052000833E0,5.173242188E-1,3.087778931E0,7.093000031E0,7.753234970E0
6.062004833E0,6.087840271E-1,3.007246399E0,7.104825439E0,7.739036983E0
6.072009833E0,7.852670288E-1,2.875220947E0,6.999743958E0,7.607887701E0
6.082014833E0,1.046623535E0,2.718347168E0,6.873256989E0,7.465018003E0
6.092018833E0,1.265318756E0,2.660118256E0,6.713988190E0,7.331773189E0
6.102023833E0,1.333726501E0,2.595602417E0,6.491550751E0,7.117317573E0
6.112028833E0,1.279539185E0,2.537672882E0,6.188131714E0,6.809550520E0
6.122032833E0,1.294807434E0,2.493814087E0,5.926924896E0,6.559273871E0
6.132037833E0,1.449136505E0,2.381248169E0,5.813011780E0,6.446816688E0
6.142042833E0,1.590442657E0,2.293380890E0,5.860612793E0,6.491216070E0
6.152043458E0,1.802551575E0,2.213746490E0,6.032455444E0,6.673858284E0
6.162048458E0,1.997595978E0,2.144739990E0,5.987399139E0,6.666276905E0
6.172053458E0,2.026934967E0,1.971699829E0,5.687123566E0,6.351333720E0
6.182057458E0,1.866917725E0,1.852397919E0,5.064119110E0,5.706317744E0
6.192062458E0,1.722318420E0,1.521436157E0,4.258793793E0,4.839263714E0
6.202067458E0,1.585802307E0,1.199006653E0,3.499722290E0,4.024977269E0
6.212071458E0,1.707948303E0,1.000669098E0,2.883753204E0,3.497779094E0
6.222076458E0,1.828148346E0,6.710545349E-1,2.378104706E0,3.073731048E0
6.232081458E0,1.970053253E0,2.703378296E-1,1.924847260E0,2.767531271E0
6.242085458E0,2.196083221E0,-8.352630615E-2,1.471290436E0,2.644702952E0
6.252090458E0,2.254761200E0,-3.724255371E-1,9.509724426E-1,2.475277244E0
6.262095458E0,2.248923340E0,-7.129673767E-1,5.287005615E-1,2.417747496E0
6.272100458E0,2.259850616E0,-9.247769165E-1,4.034111023E-1,2.474849020E0
6.282104458E0,2.350861359E0,-9.125024414E-1,5.809419250E-1,2.587798940E0
6.292109458E0,2.684667206E0,-9.358538818E-1,7.933502197E-1,2.951722390E0
6.302114458E0,2.976260834E0,-1.212179260E0,9.102571106E-1,3.340071125E0
6.312118458E0,3.225492554E0,-1.526974640E0,1.106648712E0,3.736325084E0
6.322123458E0,3.440595245E0,-1.585652618E0,1.542841644E0,4.090519552E0
6.332128458E0,3.740122375E0,-1.537452850E0,1.974693604E0,4.500187938E0
6.342132458E0,3.711232452E0,-1.504221954E0,2.490970001E0,4.716021793E0
6.352137458E0,3.385509796E0,-1.365161133E0,2.841241608E0,4.625796728E0
6.362142458E0,3.368594971E0,-1.288969574E0,3.529510345E0,5.046416344E0
6.372146458E0,3.968247986E0,-1.401685181E0,4.614154816E0,6.245169180E0
6.382151458E0,5.028493195E0,-1.558409271E0,5.835465088E0,7.859200726E0
6.392156458E0,6.323150940E0,-1.687291260E0,7.148085480E0,9.691455806E0
6.402160458E0,7.713609467E0,-1.764231262E0,8.409811707E0,1.154717350E1
6.412165458E0,9.075028381E0,-1.761686554E0,9.545649719E0,1.328830720E1
6.422170458E0,1.023361908E1,-1.520388336E0,1.049392776E1,1.473638558E1
6.432174458E0,1.065738785E1,-1.230890350E0,1.099433716E1,1.536132990E1
6.442179458E0,1.060529617E1,-9.828561401E-1,1.116363510E1,1.542935714E1
6.452184458E0,1.043465103E1,-5.333409119E-1,1.146495850E1,1.551166232E1
6.462188458E0,1.049467621E1,-2.615061951E-1,1.174562485E1,1.575329544E1
6.472193458E0,1.050590286E1,1.945953369E-3,1.172242310E1,1.574132148E1
6.482198458E0,1.056697586E1,1.929487610E-1,1.141241776E1,1.555446840E1
6.492202458E0,1.069780380E1,5.912704468E-2,1.107561813E1,1.539856549E1
6.502207458E0,1.076501404E1,1.686991882E-1,1.085482727E1,1.528859908E1
6.512212458E0,1.081560883E1,2.061213684E-1,1.097772171E1,1.541201655E1
6.522216458E0,1.070678513E1,1.293310547E-1,1.082878143E1,1.522873867E1
6.532221458E0,1.083910995E1,3.278182983E-2,1.035441788E1,1.499004166E1
6.542226458E0,1.116917358E1,1.673519897E-1,1.022837997E1,1.514589720E1
6.552230458E0,1.161419815E1,2.631527710E-1,1.042357407E1,1.560800257E1
6.562235458E0,1.224603424E1,6.286926270E-2,1.055904236E1,1.616980775E1
6.572240458E0,1.279239807E1,-5.179229736E-2,1.101379669E1,1.688051683E1
6.582244458E0,1.351659210E1,1.052311707E-1,1.168320465E1,1.786635404E1
6.592249458E0,1.427386734E1,1.047821045E-2,1.215771790E1,1.874976008E1
6.602254458E0,1.461635513E1,-1.122665405E-1,1.240126144E1,1.916876956E1
6.612258458E0,1.463746124E1,8.981323242E-2,1.260798157E1,1.931902009E1
6.622263458E0,1.482352432E1,3.173400879E-1,1.269614822E1,1.951998355E1
6.632268458E0,1.519235733E1,3.900888062E-1,1.288281006E1,1.992301899E1
6.642272458E0,1.646860336E1,4.819976807E-1,1.379127090E1,2.148595755E1
6.652277458E0,1.808524155E1,3.968247986E-1,1.453252945E1,2.320404801E1
6.662282458E0,1.986998016E1,7.933502197E-2,1.525477753E1,2.505056173E1
6.672287458E0,2.167881866E1,2.037263489E-1,1.626173355E1,2.710086089E1
6.682291458E0,2.361429382E1,4.996609497E-1,1.736029907E1,2.931321405E1
6.692296458E0,2.513498154E1,5.617817688E-1,1.836321350E1,3.113343068E1
6.702300458E0,2.628264496E1,1.045426025E0,1.913994827E1,3.253010854E1
6.712305458E0,2.671060501E1,1.426234131E0,1.912018936E1,3.287966248E1
6.722310458E0,2.604583740E1,1.292861481E0,1.812715439E1,3.175926421E1
6.732315458E0,2.528766403E1,8.858578491E-1,1.633627853E1,3.011851080E1
6.742319458E0,2.454131607E1,1.966909790E-1,1.384860168E1,2.817975604E1
6.752324458E0,2.340053833E1,-4.293072510E-1,1.142933258E1,2.604609648E1
6.762329458E0,2.286001236E1,-1.108145599E0,9.861941986E0,2.492119683E1
6.772333458E0,2.245106277E1,-1.734742584E0,9.163195038E0,2.431097890E1
6.782338458E0,2.149006119E1,-2.394869843E0,9.414073334E0,2.358353044E1
6.792343458E0,2.087259521E1,-3.157084808E0,1.037492523E1,2.352172377E1
6.802347458E0,2.018612274E1,-3.573219452E0,1.062236069E1,2.308856850E1
6.812352458E0,1.895508270E1,-3.987707520E0,9.932595062E0,2.176817439E1
6.822357458E0,1.748469040E1,-4.395908661E0,8.913364563E0,2.011184922E1
6.832361458E0,1.605995316E1,-4.525688782E0,7.689659271E0,1.837212056E1
6.842366458E0,1.478520401E1,-4.709805908E0,6.384673004E0,1.677940937E1
6.852371458E0,1.372196503E1,-4.830904083E0,5.331014099E0,1.549353639E1
6.862375458E0,1.272009842E1,-4.695136414E0,4.646487579E0,1.433300585E1
6.872380458E0,1.144265488E1,-4.383783875E0,4.198169861E0,1.295285844E1
6.882385458E0,9.694440308E0,-3.816313934E0,3.709585876E0,1.105926997E1
6.892389458E0,8.423732758E0,-3.176394653E0,3.691922607E0,9.730315982E0
6.902394458E0,7.888445892E0,-2.377056885E0,4.089795227E0,9.198065179E0
6.912399458E0,7.370073853E0,-1.767374725E0,4.146078186E0,8.638956322E0
6.922403458E0,6.565646667E0,-1.527423706E0,3.800596619E0,7.738557617E0
6.932408458E0,5.936055908E0,-9.830058289E-1,3.366798706E0,6.894809187E0
6.942413458E0,5.344336395E0,-1.926493835E-1,2.737058258E0,6.007539696E0
6.952417458E0,4.512216797E0,5.637277222E-1,2.021995239E0,4.976580564E0
6.962422458E0,3.537144470E0,1.259929962E0,1.485361176E0,4.037958932E0
6.972427458E0,2.764002228E0,2.263592834E0,1.437610474E0,3.851010869E0
6.982431458E0,2.047142944E0,3.139720917E0,1.544637909E0,4.053954605E0
6.992436458E0,1.367256775E0,3.764970703E0,1.510059814E0,4.280733130E0
7.002441458E0,9.675878906E-1,4.352049866E0,1.381926270E0,4.667578020E0
7.012445458E0,7.330256653E-1,4.628824310E0,8.782237244E-1,4.768083266E0
7.022450458E0,4.770579529E-1,4.461622009E0,2.549198914E-1,4.494289643E0
7.032455458E0,1.661544800E-1,4.290976868E0,-3.460803223E-1,4.308115757E0
7.042459458E0,-2.406994629E-1,4.048780518E0,-8.786727905E-1,4.150015155E0
7.052464458E0,-7.562274170E-1,3.643573151E0,-1.334025879E0,3.953116524E0
7.062469458E0,-1.284179535E0,3.263214111E0,-1.605411530E0,3.856815992E0
7.072473458E0,-1.942660217E0,3.089575195E0,-1.900148621E0,4.114604281E0
7.082478458E0,-2.258952484E0,2.619402924E0,-1.933529205E0,3.962659863E0
7.092483458E0,-1.932182007E0,1.857637024E0,-1.390009460E0,3.019315969E0
7.102487458E0,-1.086141357E0,1.202748871E0,-3.803590393E-1,1.664626352E0
7.112492458E0,-5.358856201E-2,6.557862854E-1,5.815406799E-1,8.781326486E-1
7.122497458E0,7.411088562E-1,1.872605896E-1,1.510808258E0,1.693177621E0
7.132501458E0,1.222208405E0,2.020797729E-2,2.160157928E0,2.482032236E0
7.142506458E0,1.271905060E0,-9.879455566E-3,2.632425842E0,2.923611790E0
7.152511583E0,1.128503265E0,-2.290237427E-2,2.799628143E0,3.018602637E0
7.162516583E0,1.030756531E0,2.380050659E-2,2.676883392E0,2.868576334E0
7.172520583E0,1.102906494E0,5.403762817E-2,2.316732330E0,2.566431665E0
7.182525583E0,1.374591522E0,7.334747314E-3,1.778002625E0,2.247409394E0
7.192530583E0,1.636546783E0,5.463638306E-2,1.293909302E0,2.086976710E0
7.202534583E0,1.747615814E0,1.944456482E-1,8.400531006E-1,1.948758414E0
7.212539583E0,1.688339081E0,2.853067017E-1,4.029620361E-1,1.759052918E0
7.222544583E0,1.514849854E0,4.189787292E-1,1.127156067E-1,1.575759519E0
7.232548583E0,1.417701874E0,5.471122742E-1,7.200027466E-2,1.521313407E0
7.242553583E0,1.386267242E0,7.159611511E-1,1.110690308E-1,1.564184633E0
7.252558583E0,1.225501556E0,8.077203369E-1,1.998344421E-1,1.481283231E0
7.262562583E0,1.188229065E0,7.319778442E-1,3.805087280E-1,1.446536127E0
7.272567583E0,1.350641327E0,6.548881531E-1,5.674699402E-1,1.604721976E0
7.282572583E0,1.420845337E0,6.372248840E-1,6.480024719E-1,1.686642887E0
7.292576583E0,1.345851288E0,5.963598633E-1,6.768923950E-1,1.620229641E0
7.302581583E0,1.164727936E0,5.288502502E-1,6.963519287E-1,1.456427053E0
7.312586583E0,9.199868774E-1,4.731660461E-1,7.150630188E-1,1.257607682E0
7.322590583E0,7.499404907E-1,3.305126953E-1,7.346722412E-1,1.100632856E0
7.332595583E0,6.584806824E-1,1.853146362E-1,7.607180786E-1,1.023049519E0
7.342600583E0,6.306385803E-1,6.945556641E-2,8.240364075E-1,1.039983219E0
7.352604583E0,5.830375671E-1,-8.247848511E-2,8.080197144E-1,9.998156650E-1
7.362609583E0,4.611909485E-1,-2.122586060E-1,6.713539124E-1,8.417047478E-1
7.372614583E0,2.665956116E-1,-2.044747925E-1,5.319937134E-1,6.292062237E-1
7.382618583E0,6.915618896E-2,-7.484436035E-3,3.980223083E-1,4.040548888E-1
7.392623583E0,-8.397537231E-2,3.704795837E-1,2.791694641E-1,4.714261075E-1
7.402628583E0,-2.980302429E-1,8.325686646E-1,3.126997375E-1,9.379625434E-1
7.412632583E0,-4.305047607E-1,1.312470703E0,4.805007935E-1,1.462461866E0
7.422637583E0,-2.884501648E-1,1.813927917E0,9.461824036E-1,2.066107240E0
7.432642583E0,-1.228944397E-1,2.250270538E0,1.807640991E0,2.889011335E0
7.442646583E0,4.288581848E-1,2.533631287E0,2.888243866E0,3.865896981E0
7.452651583E0,1.347497864E0,2.824326782E0,4.053420868E0,5.120819563E0
7.462656583E0,2.159559174E0,3.241658936E0,5.246739349E0,6.534548361E0
7.472660583E0,2.314636688E0,4.041595459E0,6.906188507E0,8.329914558E0
7.482665583E0,1.778900757E0,5.152734833E0,1.010533585E1,1.148185424E1
7.492670583E0,1.312171326E0,5.778583374E0,1.443583054E1,1.560471155E1
7.502674583E0,5.513035583E-1,6.221661987E0,1.907213928E1,2.006886918E1
7.512679583E0,-4.909790039E-1,7.145840149E0,2.353376129E1,2.459963439E1
7.522684583E0,8.999285889E-1,6.412365417E0,2.684786957E1,2.761768278E1
7.532688583E0,5.279521179E0,3.520978088E0,2.993370255E1,3.059897349E1
7.542693583E0,1.033525772E1,1.682201843E0,3.212873795E1,3.379205760E1
7.552698583E0,1.241667938E1,1.600172424E0,3.215493347E1,3.450614764E1
7.562703583E0,1.119911133E1,2.443518677E0,3.117117920E1,3.321194500E1
7.572707583E0,8.850345612E0,4.096231842E0,2.953657837E1,3.110493843E1
7.582712583E0,6.452182617E0,5.377567291E0,2.661525330E1,2.790914901E1
7.592717583E0,4.735103302E0,5.491181030E0,2.318678284E1,2.429405628E1
7.602721583E0,3.782633972E0,6.122268677E0,2.010349457E1,2.135277470E1
7.612726583E0,3.445684662E0,6.465205536E0,1.786594757E1,1.930967913E1
7.622731583E0,2.976709900E0,6.258485413E0,1.609527969E1,1.752391138E1
7.632735583E0,2.414029999E0,5.770051117E0,1.490420654E1,1.616342796E1
7.642740583E0,2.198927307E0,5.212310944E0,1.447579742E1,1.554194897E1
7.652745583E0,2.387235718E0,5.057083740E0,1.502710098E1,1.603392510E1
7.662749583E0,2.540067902E0,4.936883698E0,1.604214020E1,1.697571877E1
7.672754583E0,2.673141174E0,4.779261475E0,1.712708405E1,1.798121330E1
7.682759583E0,2.965483246E0,4.926405487E0,1.776984741E1,1.867701901E1
7.692763583E0,3.114722900E0,5.078938293E0,1.775996796E1,1.873268733E1
7.702768583E0,3.036735077E0,5.080435181E0,1.717693039E1,1.816809069E1
7.712773583E0,3.016976166E0,4.975054321E0,1.639959686E1,1.740115191E1
7.722777583E0,2.722837830E0,4.811444550E0,1.536884033E1,1.633294516E1
7.732782583E0,2.194586334E0,4.652175751E0,1.425590469E1,1.515551936E1
7.742787583E0,1.709295502E0,4.375101929E0,1.315464478E1,1.396810249E1
7.752791583E0,1.186133423E0,4.051774292E0,1.215008377E1,1.286267169E1
7.762796583E0,7.177574158E-1,3.620072021E0,1.123803040E1,1.182850051E1
7.772801583E0,4.821473694E-1,3.191812592E0,1.035037628E1,1.084206728E1
7.782805583E0,2.360591125E-1,2.905308380E0,9.474397888E0,9.912656356E0
7.792810583E0,1.983375549E-1,2.555336151E0,8.433163147E0,8.814041144E0
7.802815583E0,1.239422607E-1,2.250869293E0,7.420518951E0,7.755377216E0
7.812819583E0,-3.951782227E-2,2.082918549E0,6.504723358E0,6.830193065E0
7.822824583E0,-1.767823792E-1,1.992506561E0,5.729934540E0,6.069059584E0
7.832829583E0,-2.529739380E-1,1.840722198E0,5.215753784E0,5.536816916E0
7.842833583E0,-1.856140137E-1,1.675316162E0,4.899162140E0,5.181015970E0
7.852838583E0,-8.023315430E-2,1.665885773E0,4.590653687E0,4.884231161E0
7.862843583E0,-7.065307617E-2,1.654509430E0,4.191583557E0,4.506857667E0
7.872847583E0,-1.544787598E-1,1.794618073E0,3.744463348E0,4.155180319E0
7.882852583E0,-2.857557678E-1,1.811832275E0,3.396287384E0,3.859943076E0
7.892857583E0,-2.598596191E-1,1.758842468E0,3.046614532E0,3.527451482E0
7.902861583E0,-3.918850708E-1,1.741628265E0,2.936892700E0,3.436885459E0
7.912866583E0,-4.204756165E-1,1.611548767E0,3.243604889E0,3.646211986E0
7.922871583E0,-1.923500061E-1,1.495839386E0,3.814367981E0,4.101699293E0
7.932875583E0,2.125579834E-2,1.475032654E0,4.615502014E0,4.845516689E0
7.942880583E0,3.155438232E-1,1.493294678E0,5.315596161E0,5.530376067E0
7.952885583E0,5.010081482E-1,1.541644135E0,5.576653290E0,5.807472576E0
7.962890583E0,4.571493530E-1,1.545685730E0,5.687872009E0,5.911854016E0
7.972894583E0,2.748284912E-1,1.565444641E0,5.849386139E0,6.061473899E0
7.982899583E0,2.050735474E-1,1.616787872E0,6.009104004E0,6.226185760E0
7.992904583E0,-8.861572266E-2,1.956581268E0,6.010900269E0,6.321944720E0
8.002908583E0,-5.215155029E-1,2.356998596E0,5.940247192E0,6.412016649E0
8.012913583E0,-1.123713226E0,3.033591614E0,5.850134583E0,6.685019381E0
8.022918583E0,-1.578766937E0,3.917802887E0,6.083349609E0,7.405999391E0
8.032922583E0,-2.092648315E0,4.570745087E0,6.745572510E0,8.412706824E0
8.042927583E0,-2.610870667E0,4.655768280E0,7.860005035E0,9.501184298E0
8.052932583E0,-2.920726318E0,4.534520416E0,8.824599152E0,1.034244013E1
8.062936583E0,-2.750230865E0,3.896397400E0,1.015233810E1,1.121675762E1
8.072941583E0,-1.687890015E0,2.981200562E0,1.178319672E1,1.227111463E1
8.082946583E0,9.624984741E-2,2.514171753E0,1.344548996E1,1.367887144E1
8.092950583E0,1.843117218E0,2.182311859E0,1.353470444E1,1.383285185E1
8.102955583E0,1.822460175E0,2.111509094E0,1.186792053E1,1.219128252E1
8.112960583E0,5.562432861E-1,2.374661865E0,1.045470932E1,1.073542605E1
8.122964583E0,-3.504212952E-1,3.127296753E0,9.077423401E0,9.607413578E0
8.132969583E0,-1.041833496E0,3.448079681E0,7.686366119E0,8.488515456E0
8.142974583E0,-1.411864014E0,3.613485718E0,7.265142059E0,8.236074803E0
8.152977708E0,-1.231339417E0,4.179159393E0,7.086862793E0,8.318965936E0
8.169896292E0,9.205856323E-2,3.896846466E0,7.840395813E0,8.755894795E0
8.179901292E0,4.625381470E-2,3.999532928E0,7.642507324E0,8.625909880E0
8.189906292E0,-2.028282166E-1,3.944896545E0,7.284152527E0,8.286267319E0
8.199911292E0,-2.282752991E-1,3.824247437E0,7.079378357E0,8.049507810E0
8.209915292E0,1.252894592E-1,3.810925140E0,6.903194733E0,7.886250401E0
8.219920292E0,4.971162415E-1,3.650458832E0,6.763834534E0,7.702105676E0
8.229924292E0,7.071295166E-1,3.515289917E0,6.548282776E0,7.465741937E0
8.239929292E0,6.873706055E-1,3.511847076E0,6.263724518E0,7.213861176E0
8.249934292E0,6.950047302E-1,3.404520264E0,5.987698517E0,6.922884033E0
8.259939292E0,7.500901794E-1,3.429069214E0,6.162684631E0,7.092237504E0
8.269943292E0,8.786727905E-1,3.364403687E0,6.447841644E0,7.325704055E0
8.279948292E0,1.143172760E0,3.188369751E0,6.612499237E0,7.429514909E0
8.289953292E0,1.374890900E0,3.012485504E0,6.606661377E0,7.390085821E0
8.299957292E0,1.591490479E0,2.835403748E0,6.455924835E0,7.228507580E0
8.309962292E0,1.720821533E0,2.678080902E0,6.166426849E0,6.939608358E0
8.319971167E0,1.806742859E0,2.433190155E0,5.855074310E0,6.592922665E0
8.329975167E0,1.960772552E0,2.126927032E0,5.649701385E0,6.347249274E0
8.339980167E0,2.143093414E0,1.888772278E0,5.476212158E0,6.176504651E0
8.349985167E0,2.262694702E0,1.690434723E0,5.236111450E0,5.949304160E0
8.359989167E0,2.371518402E0,1.389560394E0,4.803810425E0,5.534579679E0
8.369994167E0,2.412533112E0,9.758207703E-1,4.405488739E0,5.116724853E0
8.379999167E0,2.602039032E0,5.216651917E-1,4.197720795E0,4.966246225E0
8.390003167E0,2.802172852E0,1.613644409E-1,4.164639587E0,5.022194149E0
8.400008167E0,3.266058197E0,-3.146456909E-1,4.489613800E0,5.560824591E0
8.410013167E0,3.667523346E0,-6.144721985E-1,5.046605530E0,6.268694517E0
8.420017167E0,3.918102264E0,-7.487429810E-1,5.258864136E0,6.600590383E0
8.430022167E0,3.790866852E0,-9.196875000E-1,5.065915375E0,6.393746568E0
8.440027167E0,3.580703888E0,-1.175355835E0,4.872966614E0,6.160252048E0
8.450031167E0,3.359913025E0,-1.140328674E0,4.895419922E0,6.046031858E0
8.460036167E0,3.534749451E0,-1.163081360E0,5.283712463E0,6.462571417E0
8.470041167E0,3.774101715E0,-1.168021088E0,5.551056519E0,6.813394564E0
8.480045167E0,3.763473816E0,-1.217717743E0,5.244494019E0,6.568964087E0
8.490050167E0,3.791016541E0,-1.379381561E0,4.668042755E0,6.169693920E0
8.500055167E0,3.924987946E0,-1.316063232E0,4.253854065E0,5.935724658E0
8.510059167E0,4.171375580E0,-1.295705566E0,4.067491608E0,5.968560557E0
8.520064167E0,4.461622009E0,-1.357227631E0,4.099674683E0,6.209305138E0
8.530069167E0,4.432283020E0,-1.230590973E0,4.110601959E0,6.168997923E0
8.540073167E0,4.478686523E0,-1.294208679E0,3.895948334E0,6.075526520E0
8.550078167E0,4.660857697E0,-1.569186859E0,3.647764435E0,6.123081515E0
8.560083167E0,5.024002533E0,-1.865271149E0,3.907923431E0,6.632624176E0
8.570087167E0,5.735622711E0,-1.934277649E0,4.505480804E0,7.545737551E0
8.580092167E0,6.108347626E0,-2.074685669E0,5.193001099E0,8.281515064E0
8.590097167E0,6.211632843E0,-2.359842682E0,5.804030457E0,8.822698544E0
8.600101167E0,6.418951721E0,-2.421364746E0,6.084846497E0,9.170131151E0
8.610106167E0,6.714586945E0,-2.488275604E0,6.163433075E0,9.448020988E0
8.620111167E0,6.901847534E0,-2.484832764E0,6.212081909E0,9.612484325E0
8.630115167E0,7.154073029E0,-2.565065918E0,6.586902466E0,1.005721672E1
8.640120167E0,7.659721527E0,-2.520758057E0,7.509134674E0,1.101874124E1
8.650125167E0,8.359965363E0,-2.285297699E0,8.719367981E0,1.229385962E1
8.660129167E0,8.901090088E0,-2.202669525E0,9.997110901E0,1.356552189E1
8.670134167E0,8.830287323E0,-2.123484192E0,1.078372513E1,1.409864841E1
8.680139167E0,8.265362091E0,-2.004481659E0,1.083896027E1,1.377741692E1
8.690143167E0,7.658074951E0,-1.713187408E0,1.024095383E1,1.290187034E1
8.700148167E0,7.578739929E0,-1.672472076E0,9.748927002E0,1.246098068E1
8.710153167E0,8.273445282E0,-2.011666718E0,9.346863098E0,1.264359718E1
8.720157167E0,9.371711426E0,-2.482587433E0,9.421857147E0,1.351900912E1
8.730162167E0,1.055889267E1,-2.817890167E0,9.960437164E0,1.478651507E1
8.740167167E0,1.134685410E1,-2.685565338E0,1.094733490E1,1.599398326E1
8.750171167E0,1.189980423E1,-2.147733765E0,1.188962540E1,1.695822199E1
8.760176167E0,1.229408432E1,-1.879192200E0,1.238344849E1,1.755066007E1
8.770181167E0,1.276904663E1,-1.811682587E0,1.299313065E1,1.830716225E1
8.780185167E0,1.332484085E1,-1.815574493E0,1.314701065E1,1.880668986E1
8.790190167E0,1.395503036E1,-1.837429047E0,1.329071182E1,1.935877162E1
8.800195167E0,1.447025894E1,-2.041454773E0,1.342917389E1,1.984687993E1
8.810199167E0,1.496991989E1,-2.434836731E0,1.341914474E1,2.025093522E1
8.820204167E0,1.592807739E1,-3.028502197E0,1.314386719E1,2.087191222E1
8.830209167E0,1.750459900E1,-3.659290466E0,1.303953415E1,2.213212244E1
8.840213167E0,1.957344681E1,-4.262685699E0,1.308863205E1,2.392911612E1
8.850218167E0,2.205363922E1,-4.853207703E0,1.305001236E1,2.608101705E1
8.860223167E0,2.457634323E1,-5.246290283E0,1.271336243E1,2.816291520E1
8.870227167E0,2.666929092E1,-5.411546631E0,1.282877243E1,3.008510125E1
8.880232167E0,2.839699814E1,-5.381608887E0,1.329056213E1,3.181179434E1
8.890237167E0,2.958597565E1,-5.517376556E0,1.338606354E1,3.293870210E1
8.900241167E0,3.043426163E1,-6.420149231E0,1.291649002E1,3.367934547E1
8.910246167E0,3.077405502E1,-7.461234283E0,1.153576126E1,3.370142827E1
8.920251167E0,3.040147980E1,-8.251740417E0,1.015997223E1,3.309933881E1
8.930255167E0,2.979673737E1,-8.875044250E0,9.964329071E0,3.264812126E1
8.940260167E0,2.889875473E1,-9.738748169E0,1.019110748E1,3.215338104E1
8.950265167E0,2.762445465E1,-1.070633606E1,9.692494354E0,3.117179131E1
8.960269167E0,2.656301193E1,-1.160117523E1,8.721014557E0,3.026940641E1
8.970274167E0,2.511507294E1,-1.222702377E1,8.314459991E0,2.914442046E1
8.980279167E0,2.281181259E1,-1.233614685E1,8.046517181E0,2.715337459E1
8.990283167E0,2.076511871E1,-1.219858292E1,6.691983948E0,2.499556420E1
9.000288167E0,1.940923828E1,-1.159249329E1,4.394262085E0,2.303071798E1
9.010293167E0,1.804287964E1,-1.063777863E1,2.921923828E0,2.114817908E1
9.020297167E0,1.621787476E1,-9.740394745E0,2.106419678E0,1.903501393E1
9.030302167E0,1.412567551E1,-8.718469849E0,1.009949799E0,1.663028634E1
9.040307167E0,1.214559311E1,-7.736811218E0,4.819976807E-1,1.440853919E1
9.050311167E0,1.023960663E1,-6.697073364E0,8.457412720E-2,1.223550115E1
9.060316167E0,8.997938690E0,-6.058201904E0,3.236270142E-1,1.085216317E1
9.070321167E0,8.253386993E0,-5.561085663E0,1.475182343E0,1.006082668E1
9.080325167E0,7.655530243E0,-4.556973724E0,2.520308990E0,9.258785570E0
9.090330167E0,6.668033752E0,-3.379222870E0,2.855911102E0,8.002377744E0
9.100335167E0,4.956043854E0,-2.416425018E0,2.394869843E0,6.011396020E0
9.110339167E0,3.279979248E0,-1.508562927E0,1.623823242E0,3.958639652E0
9.120344167E0,1.718875580E0,-3.263214111E-1,5.487588501E-1,1.833618062E0
9.130349167E0,1.652563477E-1,4.544549561E-1,-6.756948853E-1,8.309046549E-1
9.140353167E0,-7.194039917E-1,1.092428284E0,-1.845063171E0,2.261680739E0
9.150358167E0,-1.506467285E0,1.836231537E0,-2.962190094E0,3.796809199E0
9.160363167E0,-2.498155060E0,2.246827698E0,-4.016597443E0,5.236608485E0
9.170367167E0,-3.417243805E0,2.547702026E0,-4.785548401E0,6.408573502E0
9.180372167E0,-4.217180328E0,2.728825378E0,-5.189109192E0,7.222046253E0
9.190377167E0,-4.709955597E0,2.455643463E0,-5.150190125E0,7.398535319E0
9.200381167E0,-4.693789215E0,2.120939484E0,-4.864434357E0,7.084685109E0
9.210386167E0,-4.169130249E0,1.777104492E0,-4.313280487E0,6.256527469E0
9.220391167E0,-3.244652710E0,1.335822144E0,-3.873644714E0,5.226596922E0
9.230395167E0,-2.341281281E0,8.909472656E-1,-3.657344513E0,4.433007326E0
9.240400167E0,-1.623673553E0,3.992198181E-1,-3.280128937E0,3.681703154E0
9.250405167E0,-7.162605286E-1,3.263214111E-2,-2.412533112E0,2.516825384E0
9.260409167E0,2.800675964E-1,-2.272274780E-1,-1.245559845E0,1.296722604E0
9.270414167E0,1.040486298E0,-3.794609070E-1,-1.589694214E-1,1.118871571E0
9.280419167E0,1.612895966E0,-4.544549561E-1,6.297404480E-1,1.790121709E0
9.290423167E0,2.100731506E0,-3.490740967E-1,1.437161407E0,2.569116287E0
9.300428167E0,2.439776459E0,-6.526428223E-2,2.092648315E0,3.214956542E0
9.310433167E0,2.724185028E0,3.996688843E-2,2.460283813E0,3.670936919E0
9.320433792E0,2.858455811E0,9.325607300E-2,2.717598724E0,3.945226121E0
9.330438792E0,2.694995728E0,2.031275940E-1,2.684667206E0,3.809422633E0
9.340443792E0,2.378553772E0,1.788780212E-1,2.298470306E0,3.312473569E0
9.350447792E0,2.131866760E0,1.058299255E-1,1.719025269E0,2.740639292E0
9.360452792E0,2.086960144E0,8.262817383E-2,1.149160309E0,2.383862302E0
9.370457792E0,2.179018707E0,-2.814147949E-2,6.295907593E-1,2.268325152E0
9.380462792E0,2.279160461E0,-1.703457642E-1,3.489244080E-1,2.311998774E0
9.390466792E0,2.200124817E0,-2.020797729E-2,2.983296204E-1,2.220350903E0
9.400471792E0,2.098336487E0,2.451901245E-1,2.405497742E-1,2.126263954E0
9.410475792E0,1.976340179E0,3.276686096E-1,2.026785278E-1,2.013545581E0
9.420480792E0,1.798659668E0,3.586541748E-1,2.282752991E-1,1.848220504E0
9.430485792E0,1.622476044E0,4.471202087E-1,1.922003174E-1,1.693896678E0
9.440490792E0,1.370849304E0,5.571414185E-1,9.939331055E-2,1.483075657E0
9.450494792E0,1.023421783E0,6.477030945E-1,-7.334747314E-3,1.211183406E0
9.460499792E0,8.153544617E-1,6.249504089E-1,-1.625619507E-1,1.040092448E0
9.470504792E0,7.292834473E-1,5.216651917E-1,-2.408491516E-1,9.284380607E-1
9.480508792E0,6.875202942E-1,3.137475586E-1,-3.088078308E-1,8.163846898E-1
9.490513792E0,7.159611511E-1,3.667373657E-2,-3.999682617E-1,8.209262715E-1
9.500518792E0,8.087681580E-1,-1.252894592E-1,-3.541635132E-1,8.917595954E-1
9.510522792E0,1.063089294E0,-3.129991150E-1,-2.335144043E-1,1.132544158E0
9.520527792E0,1.325343933E0,-6.860234070E-1,-1.359173584E-1,1.498545356E0
9.530532792E0,1.431772614E0,-9.298663330E-1,3.038681030E-2,1.707497459E0
9.540536792E0,1.316961365E0,-8.913963318E-1,1.489402771E-1,1.597234442E0
9.550541792E0,1.250948639E0,-8.592132568E-1,3.736230469E-1,1.562918456E0
9.560546792E0,1.106648712E0,-8.692424011E-1,5.864804077E-1,1.524536976E0
9.570550792E0,1.031954041E0,-8.701405334E-1,6.426136780E-1,1.495000344E0
9.580555792E0,1.450483704E0,-8.551716614E-1,6.623725891E-1,1.809408465E0
9.590560792E0,2.531385956E0,-7.223977661E-1,4.858895874E-1,2.676912789E0
9.600564792E0,3.792962494E0,-4.466711426E-1,1.721420288E-2,3.819211426E0
9.610569792E0,4.686604156E0,-4.212240601E-1,-2.918930054E-2,4.705586068E0
9.620574792E0,5.767207031E0,-2.347119141E-1,1.199755096E0,5.895352315E0
9.630578792E0,7.284451904E0,-7.948471069E-2,3.756887512E0,8.196570084E0
9.640583792E0,8.657247162E0,2.180964661E-1,6.727460175E0,1.096604828E1
9.650588792E0,9.263187103E0,4.447251892E-1,9.952353973E0,1.360344682E1
9.660592792E0,1.110450806E1,8.821156311E-1,1.369008133E1,1.764954827E1
9.670597792E0,1.531644928E1,1.673519897E0,1.761147675E1,2.339996582E1
9.680602792E0,1.898531982E1,1.948198700E0,1.920042252E1,2.707201640E1
9.690606792E0,2.055450668E1,2.029629364E0,2.114323242E1,2.955745959E1
9.700611792E0,2.138737473E1,3.023861847E0,2.339754456E1,3.184350215E1
9.710616792E0,2.137255554E1,3.903582458E0,2.399585037E1,3.237012390E1
9.720620792E0,1.988749374E1,4.189787292E0,2.383403687E1,3.132296343E1
9.730625792E0,1.870884476E1,5.050946503E0,2.290761337E1,3.000486099E1
9.740630792E0,1.753648270E1,5.578449554E0,2.102767273E1,2.794298383E1
9.750634792E0,1.606414444E1,5.233417053E0,1.949321365E1,2.579594482E1
9.760639792E0,1.516975433E1,5.113516388E0,1.819586151E1,2.423548787E1
9.770644792E0,1.435589676E1,5.329666901E0,1.695943268E1,2.284993387E1
9.780648792E0,1.315015411E1,5.266797638E0,1.574635529E1,2.118049611E1
9.790653792E0,1.223091568E1,5.068310394E0,1.473595642E1,1.980988340E1
9.800658792E0,1.184292252E1,4.874164124E0,1.384276382E1,1.885827139E1
9.810662792E0,1.156240585E1,4.600383453E0,1.288011566E1,1.790949850E1
9.820667792E0,1.132993927E1,4.121379547E0,1.187091431E1,1.691957150E1
9.830672792E0,1.108355164E1,3.807931366E0,1.098221237E1,1.606096033E1
9.840676792E0,1.100586319E1,3.599564667E0,1.034468811E1,1.552734563E1
9.850681792E0,1.099553467E1,3.473227386E0,9.934990082E0,1.522068064E1
9.860686792E0,1.082204544E1,3.497626648E0,9.373058624E0,1.473785221E1
9.870690792E0,1.063014450E1,3.292553101E0,8.755442963E0,1.415975492E1
9.880695792E0,1.036115387E1,2.973267059E0,8.178692322E0,1.353088447E1
9.890700792E0,9.932145996E0,2.754272461E0,7.554490356E0,1.277904008E1
9.900704792E0,9.371561737E0,2.540816345E0,6.995852051E0,1.196761727E1
9.910709792E0,8.547974396E0,2.249372406E0,6.240223389E0,1.081979346E1
9.920714792E0,7.825426941E0,1.822759552E0,5.253774719E0,9.600099374E0
9.930718792E0,7.226971436E0,1.414259033E0,4.287084961E0,8.521052881E0
9.940723792E0,6.736740875E0,8.059240723E-1,3.339854736E0,7.562262948E0
9.950728792E0,6.323600006E0,2.558180237E-1,2.459235992E0,6.789786563E0
9.960732792E0,5.981561279E0,-9.430389404E-3,1.766326904E0,6.236912297E0
9.970737792E0,5.708079987E0,-1.764830017E-1,1.258283386E0,5.847785945E0
9.980742792E0,5.523214417E0,-3.457809448E-1,1.013991394E0,5.626156814E0
9.990746792E0,5.277126160E0,-6.435118103E-1,1.048120422E0,5.418553716E0
1.000075179E1,4.896767120E0,-9.005273438E-1,1.149459686E0,5.109846896E0
1.001075679E1,4.513114929E0,-1.111738129E0,1.334175568E0,4.835720471E0
1.002076079E1,4.247417450E0,-1.276695099E0,1.406026154E0,4.652678252E0
1.003076579E1,4.125421143E0,-1.512454834E0,1.413211212E0,4.615602361E0
1.004077079E1,4.257745972E0,-1.872605896E0,1.457369385E0,4.874318324E0
1.005077479E1,4.380041656E0,-1.942211151E0,1.407672729E0,4.993845370E0
1.006077979E1,4.345164185E0,-1.795216827E0,1.302441559E0,4.878484320E0
1.007078479E1,4.584217072E0,-1.722617798E0,1.405277710E0,5.094827149E0
1.008078879E1,4.951553192E0,-1.553469543E0,1.942510529E0,5.541163577E0
1.009079379E1,5.346881104E0,-1.237177277E0,2.780767365E0,6.152431412E0
1.010079879E1,5.741909637E0,-8.312214661E-1,3.461851044E0,6.756098583E0
1.011080279E1,5.826783142E0,-4.676275635E-1,3.817212067E0,6.981488758E0
1.012080779E1,5.622458038E0,-1.097218323E-1,4.041146393E0,6.924950357E0
1.013081279E1,5.163213043E0,3.149450684E-1,4.064348145E0,6.578516943E0
1.014081679E1,4.341721344E0,7.189549255E-1,3.691473541E0,5.744076716E0
1.015082179E1,3.542533264E0,9.988728333E-1,3.162024536E0,4.852389930E0
1.016082679E1,3.210373993E0,1.060993652E0,2.698588257E0,4.326035978E0
1.017083079E1,3.371139679E0,9.300160217E-1,2.506238251E0,4.302411266E0
1.018083579E1,3.621419220E0,9.451345825E-1,2.692900085E0,4.610820688E0
1.019084079E1,3.820804596E0,9.800120544E-1,3.029400330E0,4.973553834E0
1.020084479E1,3.901636505E0,8.885522461E-1,3.332519989E0,5.207492870E0
1.021084979E1,3.806284790E0,8.979826355E-1,3.463647308E0,5.224081679E0
1.022085479E1,3.739373932E0,9.342073059E-1,3.559597778E0,5.246560496E0
1.023085879E1,3.758833466E0,9.186396790E-1,3.692521362E0,5.348592515E0
1.024086379E1,3.887715454E0,9.788145447E-1,3.973487091E0,5.644555698E0
1.025086879E1,4.192182312E0,1.042132874E0,4.324357452E0,6.112323686E0
1.026087279E1,4.581971741E0,1.043031006E0,4.538711700E0,6.533167885E0
1.027087779E1,4.813540192E0,9.192384338E-1,4.531376953E0,6.674469684E0
1.028088279E1,5.105433197E0,7.294331360E-1,4.482129364E0,6.832788923E0
1.029088679E1,5.504802704E0,5.264552307E-1,4.496200104E0,7.127118863E0
1.030089179E1,5.835315399E0,3.911366272E-1,4.364174652E0,7.297253871E0
1.031089679E1,6.165828094E0,1.025367737E-1,4.324656830E0,7.531972290E0
1.032090083E1,6.607409821E0,-1.880090332E-1,4.516557770E0,8.005779539E0
1.033090583E1,7.300468597E0,-3.273692322E-1,4.806654510E0,8.746881727E0
1.034091083E1,8.032147064E0,-4.972659302E-1,5.229375458E0,9.597344817E0
1.035091483E1,8.877588959E0,-9.131011963E-1,5.674250336E0,1.057555939E1
1.036091983E1,9.897567902E0,-1.379980316E0,6.131549377E0,1.172442296E1
1.037092483E1,1.087757996E1,-1.748663635E0,6.642586670E0,1.286481744E1
1.038092883E1,1.163919617E1,-1.855092316E0,7.239844666E0,1.383212224E1
1.039093383E1,1.233090775E1,-1.899250488E0,8.006101227E0,1.482417266E1
1.040093883E1,1.309731400E1,-1.911225586E0,8.768914948E0,1.587722540E1
1.041094283E1,1.381327515E1,-1.875749359E0,9.168134766E0,1.668471459E1
1.042094783E1,1.440110275E1,-2.073937225E0,9.336085510E0,1.728743673E1
1.043095283E1,1.486947876E1,-2.311044159E0,9.539512482E0,1.781697567E1
1.044095683E1,1.542796738E1,-2.473905487E0,9.852511597E0,1.847198881E1
1.045096183E1,1.609423187E1,-2.698887634E0,1.031594788E1,1.930614085E1
1.046096683E1,1.718231918E1,-3.004552002E0,1.114043335E1,2.069706937E1
1.047097083E1,1.876722336E1,-3.462898865E0,1.219124817E1,2.264568111E1
1.048097583E1,2.026306274E1,-3.875141602E0,1.328577209E1,2.453813714E1
1.049098083E1,2.148107986E1,-4.243675232E0,1.430395477E1,2.615432457E1
1.050098483E1,2.258623169E1,-4.623884583E0,1.542227921E1,2.773742718E1
1.051098983E1,2.373359573E1,-5.043911133E0,1.649464920E1,2.933936022E1
1.052099483E1,2.467064713E1,-5.484145660E0,1.725342133E1,3.060060834E1
1.053099883E1,2.523153076E1,-5.864355011E0,1.764785110E1,3.134433686E1
1.054100383E1,2.544483719E1,-6.217021637E0,1.762360153E1,3.157027761E1
1.055100883E1,2.529619629E1,-6.531517639E0,1.720971222E1,3.128470016E1
1.056101283E1,2.453951981E1,-6.609206085E0,1.620934250E1,3.014319860E1
1.057101783E1,2.316358109E1,-6.712191925E0,1.477023514E1,2.828011413E1
1.058102283E1,2.149395309E1,-6.691085815E0,1.316946396E1,2.608055655E1
1.059102683E1,2.003104523E1,-6.294410706E0,1.188618256E1,2.412765456E1
1.060103183E1,1.875360168E1,-5.655389557E0,1.083057770E1,2.238263658E1
1.061103683E1,1.763422943E1,-4.982389069E0,1.009800110E1,2.092271193E1
1.062104083E1,1.663041687E1,-4.077520752E0,9.605674896E0,1.963328630E1
1.063104583E1,1.600576584E1,-3.291205902E0,9.178912354E0,1.874217192E1
1.064105083E1,1.542991333E1,-2.885100403E0,8.289012909E0,1.775144402E1
1.065105483E1,1.425904816E1,-2.660567322E0,7.107220459E0,1.615276000E1
1.066105983E1,1.270183640E1,-1.753603363E0,6.397995300E0,1.432990288E1
1.067106483E1,1.175071426E1,-5.044509888E-1,6.580615540E0,1.347732382E1
1.068106883E1,1.148322052E1,4.954696655E-2,6.714886322E0,1.330250002E1
1.069107383E1,1.041504181E1,-4.357438660E-1,5.305716705E0,1.169673452E1
1.070107883E1,8.534203033E0,-9.859996033E-1,3.779041443E0,9.385412663E0
1.071108283E1,6.671925659E0,-9.578581238E-1,2.796035614E0,7.297252863E0
1.072108783E1,5.391188965E0,-7.041357422E-1,2.262545013E0,5.888958782E0
1.073109283E1,4.559668121E0,-1.942959595E-1,2.177072754E0,5.056478030E0
1.074109683E1,3.704945526E0,3.492237854E-1,2.676284637E0,4.583784252E0
1.075110183E1,2.863994293E0,7.200027466E-1,3.071313171E0,4.260731377E0
1.076110683E1,1.668131104E0,1.085093536E0,2.926414490E0,3.538925137E0
1.077111083E1,4.983137512E-1,1.274749146E0,2.046244812E0,2.461791991E0
1.078111583E1,-6.007008362E-1,1.179696808E0,5.192701721E-1,1.422029383E0
1.079112083E1,-1.573378143E0,6.101312256E-1,-9.777667236E-1,1.950335012E0
1.080112483E1,-2.224673767E0,6.466552734E-2,-2.547552338E0,3.382806219E0
1.081112983E1,-2.824027405E0,-2.372566223E-1,-4.087100830E0,4.973511303E0
1.082113483E1,-3.040028229E0,-6.629713440E-1,-5.289400635E0,6.136697948E0
1.083113883E1,-2.921624451E0,-9.276210022E-1,-5.931116180E0,6.676414404E0
1.084114383E1,-2.685415649E0,-1.052910461E0,-5.958958282E0,6.620367170E0
1.085114883E1,-2.264940033E0,-1.170865173E0,-5.256918182E0,5.842607927E0
1.086115283E1,-1.636247406E0,-1.387764130E0,-3.842060394E0,4.400525301E0
1.087115783E1,-7.150630188E-1,-1.443897400E0,-2.154769135E0,2.690573330E0
1.088116283E1,-1.841171265E-2,-1.155447235E0,-6.083349609E-1,1.305935959E0
1.089116683E1,4.912783813E-1,-1.097966766E0,5.198689270E-1,1.310400385E0
1.090117183E1,1.002615051E0,-1.249302063E0,1.247505798E0,2.030335761E0
1.091117683E1,1.346749420E0,-1.353186035E0,1.602567444E0,2.492602828E0
1.092118083E1,1.603016510E0,-1.430275726E0,1.579814758E0,2.666676819E0
1.093118583E1,1.504072266E0,-1.436712341E0,1.203647003E0,2.403152480E0
1.094119083E1,1.239422607E0,-1.596879272E0,5.935157776E-1,2.106763582E0
1.095119483E1,8.710386658E-1,-1.650168457E0,-7.095245361E-2,1.867297123E0
1.096119983E1,6.303392029E-1,-1.579066315E0,-7.165599060E-1,1.845057190E0
1.097120483E1,6.721023560E-1,-1.336420898E0,-8.860075378E-1,1.738606267E0
1.098120883E1,8.089178467E-1,-1.006956024E0,-6.596781921E-1,1.450339214E0
1.099121383E1,8.755293274E-1,-7.393125916E-1,-4.692741394E-1,1.238286287E0
1.100121883E1,8.568182373E-1,-5.740562439E-1,-5.742059326E-1,1.180419636E0
1.101122283E1,8.015830994E-1,-3.802093506E-1,-7.241940308E-1,1.145229937E0
1.102122783E1,8.439450073E-1,-1.374142456E-1,-6.596781921E-1,1.079954243E0
1.103123283E1,8.616082764E-1,1.612147522E-1,-4.715194702E-1,9.953339284E-1
1.104123683E1,6.590794373E-1,4.337979126E-1,-3.748205566E-1,8.735312148E-1
1.105124183E1,3.430865479E-1,6.289920044E-1,-3.200344849E-1,7.847046530E-1
1.106124683E1,2.077679443E-1,8.491841125E-1,-3.034190369E-1,9.253887224E-1
1.107125083E1,2.987786865E-1,1.072669373E0,-1.727407837E-1,1.126821931E0
1.108125583E1,5.354365540E-1,1.219813385E0,1.728904724E-1,1.343327255E0
1.109126083E1,7.354206848E-1,1.338815918E0,5.631289673E-1,1.628000577E0
1.110126483E1,8.836125183E-1,1.357227631E0,1.020278320E0,1.914107044E0
1.111126983E1,1.013093262E0,1.408421173E0,1.481469269E0,2.281394169E0
1.112127483E1,1.237626343E0,1.451232147E0,1.939965820E0,2.720525885E0
1.113127883E1,1.526525574E0,1.467997284E0,2.293680267E0,3.121900947E0
1.114128383E1,1.695973206E0,1.534309387E0,2.648143158E0,3.499013089E0
1.115128883E1,1.855242004E0,1.614093475E0,3.098107452E0,3.955438083E0
1.116129283E1,2.180216217E0,1.617386627E0,3.628753967E0,4.531791876E0
1.117129783E1,2.655328217E0,1.537901917E0,4.172872467E0,5.179650072E0
1.118130283E1,2.985242157E0,1.533560944E0,4.789140930E0,5.848021097E0
1.119130683E1,3.282523956E0,1.579365692E0,5.431754608E0,6.540131316E0
1.120131183E1,3.873495026E0,1.468296661E0,6.012397156E0,7.301286076E0
1.121131683E1,4.798571320E0,1.347198486E0,6.291416931E0,8.026403770E0
1.122132083E1,5.938001862E0,1.535057831E0,6.898853760E0,9.230950756E0
1.123132583E1,7.495513000E0,1.679806824E0,7.879763947E0,1.100432397E1
1.124133083E1,8.526119843E0,1.731748810E0,9.189839630E0,1.265491311E1
1.125133483E1,9.106313324E0,2.107617188E0,1.070319260E1,1.421004308E1
1.126133983E1,9.493258667E0,2.544558563E0,1.247026794E1,1.587779333E1
1.127134483E1,9.808503113E0,2.618504791E0,1.469778580E1,1.786304028E1
1.128134883E1,1.091140961E1,2.870131531E0,1.762479904E1,2.092677844E1
1.129135383E1,1.350267105E1,3.301983490E0,2.025093796E1,2.456268936E1
1.130135883E1,1.650587585E1,2.862497406E0,2.243878830E1,2.800244721E1
1.131136283E1,1.900971909E1,2.638263702E0,2.455808121E1,3.116775911E1
1.132136783E1,2.076856155E1,2.764151917E0,2.554243423E1,3.303618670E1
1.133137308E1,2.136357422E1,2.354154510E0,2.548869598E1,3.334093535E1
1.134137708E1,2.103485779E1,1.908531189E0,2.480641479E1,3.258014654E1
1.135138208E1,1.994721954E1,1.786235504E0,2.341715378E1,3.081307021E1
1.136138708E1,1.761012955E1,2.168390808E0,2.129830994E1,2.772068880E1
1.137139108E1,1.475676315E1,2.477198639E0,1.876752274E1,2.400246824E1
1.138139608E1,1.285915924E1,2.453547821E0,1.658865372E1,2.113199719E1
1.139140108E1,1.207523941E1,2.490371246E0,1.517244873E1,1.955035949E1
1.140140508E1,1.176553345E1,2.505938873E0,1.431233734E1,1.869626987E1
1.141141008E1,1.179307617E1,2.352058868E0,1.377270950E1,1.828377296E1
1.142141508E1,1.202015396E1,2.232906647E0,1.352931564E1,1.823492131E1
1.143141908E1,1.232447113E1,2.365680542E0,1.350132385E1,1.843298074E1
1.144142408E1,1.249152374E1,2.737058258E0,1.373917923E1,1.876951516E1
1.145142908E1,1.241638000E1,3.158132629E0,1.387225250E1,1.888331760E1
1.146143308E1,1.189995392E1,3.542982330E0,1.373887985E1,1.851805731E1
1.147143808E1,1.113908615E1,3.869453430E0,1.347632584E1,1.790707313E1
1.148144308E1,1.054811508E1,4.004173279E0,1.302217026E1,1.723000446E1
1.149144708E1,9.888287201E0,3.939208374E0,1.224498642E1,1.622452707E1
1.150145208E1,8.860225067E0,3.831881561E0,1.110495712E1,1.471417606E1
1.151145708E1,7.641609192E0,3.667972412E0,9.660011902E0,1.285161634E1
1.152146108E1,6.471941528E0,3.394940186E0,8.067174225E0,1.088535466E1
1.153146608E1,5.387147369E0,2.981050873E0,6.573131104E0,9.006335192E0
1.154147108E1,4.344266052E0,2.856509857E0,5.123994598E0,7.299836761E0
1.155147508E1,3.242706757E0,2.757864990E0,3.576811981E0,5.560085464E0
1.156148008E1,2.185155945E0,2.569706268E0,2.185754700E0,4.019430360E0
1.157148508E1,1.148561554E0,2.544708252E0,1.031355286E0,2.976311048E0
1.158148908E1,3.486250305E-1,2.553988953E0,2.046244812E-1,2.585782311E0
1.159149408E1,-2.143542480E-1,2.663860474E0,-2.857557678E-1,2.687704732E0
1.160149908E1,-4.896318054E-1,2.917882233E0,-4.742138672E-1,2.996440358E0
1.161150308E1,-3.794609070E-1,2.993475037E0,-4.517605591E-1,3.051060632E0
1.162150808E1,-1.580712891E-1,2.869981842E0,-4.906796265E-1,2.915913031E0
1.163151308E1,-1.526824951E-2,2.764750671E0,-4.960684204E-1,2.808943444E0
1.164151708E1,4.340972900E-2,2.844385071E0,-2.695893860E-1,2.857462033E0
1.165152208E1,8.981323242E-4,3.008294220E0,1.071771240E-1,3.010202959E0
1.166152708E1,-1.999841309E-1,3.029250641E0,6.824308777E-1,3.111601678E0
1.167153108E1,-9.804611206E-2,2.805166626E0,1.336271210E0,3.108728612E0
1.168153608E1,4.790039062E-1,2.483784943E0,1.959425354E0,3.199684375E0
1.169154108E1,1.316063232E0,2.069745941E0,2.367626495E0,3.409035922E0
1.170154508E1,2.190395050E0,1.554367676E0,2.677182770E0,3.792254861E0
1.171155008E1,2.702779541E0,1.051263885E0,2.882855072E0,4.089135162E0
1.172155508E1,2.792443085E0,6.668632507E-1,3.121758270E0,4.241204979E0
1.173155908E1,2.614912262E0,5.213658142E-1,3.552113342E0,4.441519745E0
1.174156408E1,2.653531952E0,2.793191528E-1,4.078119507E0,4.873428949E0
1.175156908E1,2.720293121E0,2.233355713E-1,4.704117737E0,5.438620884E0
1.176157308E1,3.030298462E0,1.990859985E-1,5.262306976E0,6.075707261E0
1.177157808E1,3.752845917E0,1.829196167E-1,6.027515717E0,7.102693698E0
1.178158308E1,4.907395020E0,2.998265076E-1,7.222480774E0,8.737084774E0
1.179158708E1,6.340963898E0,3.363505554E-1,8.395890656E0,1.052672479E1
1.180159208E1,7.359895020E0,1.251397705E-1,9.125174103E0,1.172401455E1
1.181159708E1,7.852969666E0,5.388793945E-2,9.778415680E0,1.254150907E1
1.182160108E1,8.250243530E0,3.132984924E-1,1.079719711E1,1.359206164E1
1.183160608E1,8.694519653E0,5.825885010E-1,1.138921600E1,1.434044360E1
1.184161108E1,8.674311676E0,6.938072205E-1,1.113728989E1,1.413379912E1
1.185161508E1,8.181835785E0,8.164022827E-1,1.085707260E1,1.361928687E1
1.186162008E1,7.733218689E0,1.113534393E0,1.014650024E1,1.280601801E1
1.187162508E1,7.027885437E0,1.523232422E0,9.184301147E0,1.166459593E1
1.188162908E1,6.065686340E0,1.627864838E0,7.979007568E0,1.015416449E1
1.189163408E1,5.022805023E0,1.657952271E0,6.759942627E0,8.583367658E0
1.190163908E1,4.176614685E0,1.728156281E0,5.650599518E0,7.236014737E0
1.191164308E1,3.570375366E0,1.820214844E0,4.687651978E0,6.167239528E0
1.192164808E1,3.148402863E0,1.808239746E0,3.867058411E0,5.304367287E0
1.193165308E1,2.897225189E0,1.618584137E0,3.393143921E0,4.746277918E0
1.194165708E1,3.016826477E0,1.388512573E0,3.248843994E0,4.645879514E0
1.195166208E1,3.148103485E0,1.321452026E0,3.114573212E0,4.621402093E0
1.196166708E1,2.909200287E0,1.140029297E0,2.909499664E0,4.269461489E0
1.197167108E1,2.674638062E0,1.030606842E0,2.700983276E0,3.938419719E0
1.198167608E1,2.672841797E0,8.783734131E-1,2.456541595E0,3.734999295E0
1.199168108E1,2.831811218E0,6.718029785E-1,2.342478790E0,3.735997979E0
1.200168508E1,3.007845154E0,5.174739075E-1,2.252366180E0,3.793160308E0
1.201169008E1,3.124602356E0,3.385958862E-1,2.149380341E0,3.807574412E0
1.202169508E1,3.218756561E0,1.799258423E-1,2.118843842E0,3.857754053E0
1.203169908E1,3.118165741E0,1.586700439E-1,2.343676300E0,3.903966236E0
1.204170408E1,2.963088226E0,1.692979431E-1,2.850821686E0,4.115305325E0
1.205170908E1,2.771187286E0,9.265731812E-2,3.229085083E0,4.256178430E0
1.206171308E1,2.484234009E0,1.803749084E-1,3.654051361E0,4.422221734E0
1.207171808E1,2.340532837E0,4.538562012E-1,4.059109039E0,4.707488248E0
1.208172308E1,2.486629028E0,5.038522339E-1,4.195475464E0,4.902979234E0
1.209172708E1,2.816992035E0,2.161505127E-1,4.368964691E0,5.202885511E0
1.210173208E1,3.183879089E0,7.259902954E-2,4.977299652E0,5.908965096E0
1.211173708E1,3.795058136E0,1.799258423E-1,5.858367462E0,6.982500189E0
1.212174108E1,4.393813019E0,4.535568237E-2,6.529721375E0,7.870508955E0
1.213174608E1,4.472998352E0,-1.541793823E-2,7.113956451E0,8.403352210E0
1.214175108E1,4.357139282E0,4.969665527E-1,7.868387604E0,9.007949931E0
1.215175508E1,4.397106171E0,1.074914703E0,8.617429962E0,9.733965453E0
1.216176008E1,4.561015320E0,1.369801483E0,9.284592590E0,1.043469580E1
1.217176508E1,4.920567627E0,1.747915192E0,1.014380585E1,1.140894344E1
1.218176908E1,5.566624146E0,2.038610687E0,1.140074203E1,1.284990883E1
1.219177408E1,6.326743469E0,2.009122009E0,1.252505402E1,1.417537415E1
1.220177908E1,7.185058594E0,1.726210327E0,1.365550323E1,1.552667504E1
1.221178308E1,7.883057098E0,1.322050781E0,1.462937805E1,1.667060616E1
1.222178808E1,8.687933350E0,8.622070313E-1,1.565339859E1,1.792351735E1
1.223179308E1,9.386380920E0,5.298980713E-1,1.643851593E1,1.893699408E1
1.224179708E1,9.423503723E0,5.415737915E-1,1.673894119E1,1.921686439E1
1.225180208E1,8.981772308E0,7.963439941E-1,1.684851334E1,1.910965199E1
1.226180708E1,8.644822998E0,8.545729065E-1,1.706391541E1,1.914785807E1
1.227181108E1,8.605005798E0,6.385720825E-1,1.750819153E1,1.951898229E1
1.228181608E1,9.206604767E0,2.453398132E-1,1.848281479E1,2.065033185E1
1.229182108E1,1.015188904E1,-3.534150696E-1,1.951357132E1,2.199920951E1
1.230182508E1,1.088551346E1,-8.217910767E-1,2.031395691E1,2.306136573E1
1.231183008E1,1.165117126E1,-1.310225372E0,2.105925705E1,2.410308673E1
1.232183508E1,1.269210663E1,-1.907034302E0,2.183090240E1,2.532419101E1
1.233183854E1,1.354503296E1,-2.335593109E0,2.252021896E1,2.638338824E1
1.234184354E1,1.381881363E1,-2.738106079E0,2.288396255E1,2.687252458E1
1.235184854E1,1.408810364E1,-2.840493164E0,2.301928116E1,2.713725061E1
1.236185254E1,1.436517746E1,-2.702929230E0,2.322031311E1,2.743805917E1
1.237185754E1,1.428703995E1,-2.538271637E0,2.301299423E1,2.720588607E1
1.238186254E1,1.409304337E1,-2.398013306E0,2.250435196E1,2.666102392E1
1.239186654E1,1.386970779E1,-2.193837891E0,2.175396240E1,2.589240428E1
1.240187154E1,1.367496277E1,-2.169288940E0,2.098890335E1,2.514447226E1
1.241187654E1,1.349922821E1,-2.127076721E0,2.034793625E1,2.451106132E1
1.242188054E1,1.340716965E1,-1.916614380E0,1.977747253E1,2.397027385E1
1.243188554E1,1.322829163E1,-1.665287018E0,1.897274597E1,2.318891912E1
1.244189054E1,1.282727554E1,-1.428329773E0,1.798674637E1,2.213825126E1
1.245189454E1,1.240545273E1,-9.587562561E-1,1.697844315E1,2.104951312E1
1.246189954E1,1.196791260E1,-5.125341797E-1,1.604169113E1,2.002072620E1
1.247190354E1,1.151854706E1,-2.420466614E-1,1.504626114E1,1.895060651E1
1.248190854E1,1.103430405E1,2.529739380E-2,1.423898987E1,1.801403170E1
1.249191354E1,1.059347076E1,2.386038208E-1,1.352527405E1,1.718172263E1
1.250191854E1,1.023481659E1,2.784210205E-1,1.282053955E1,1.640716987E1
1.251192254E1,9.628577271E0,9.265731812E-2,1.150642227E1,1.500386081E1
1.252192754E1,8.675958252E0,-1.758842468E-1,1.014081207E1,1.334688190E1
1.253193154E1,7.819888458E0,-8.951385498E-2,9.611512756E0,1.239111963E1
1.254193654E1,6.958280182E0,2.157014465E-1,8.971743164E0,1.135589563E1
1.255194154E1,5.663921814E0,2.874023438E-1,7.739056549E0,9.594561308E0
1.256194654E1,4.229754181E0,-1.242416382E-2,6.006259918E0,7.346164509E0
1.257195054E1,3.364253998E0,-1.731898499E-1,4.427043915E0,5.562995372E0
1.258195554E1,2.974015503E0,-8.906478882E-2,3.290756836E0,4.436415366E0
1.259195954E1,2.674787750E0,-5.164260864E-2,2.626887360E0,3.749359101E0
1.260196454E1,1.895059204E0,2.005828857E-1,1.959275665E0,2.733174713E0
1.261196954E1,6.613247681E-1,6.351292419E-1,1.429527283E0,1.698319126E0
1.262197354E1,-4.815486145E-1,1.010099487E0,9.821076965E-1,1.488867210E0
1.263197854E1,-1.246907043E0,1.387165375E0,4.842430115E-1,1.927043395E0
1.264198354E1,-1.501078491E0,1.552571411E0,-2.035766602E-1,2.169137635E0
1.265198754E1,-1.994751892E0,1.814227295E0,-1.108744354E0,2.915436474E0
1.266199254E1,-2.642754364E0,2.159409485E0,-2.009571075E0,3.960501971E0
1.267199754E1,-2.392474823E0,2.432142334E0,-2.410138092E0,4.177082443E0
1.268200154E1,-2.162253571E0,2.546354828E0,-2.323468323E0,4.069123795E0
1.269200654E1,-2.174977112E0,2.580034790E0,-2.545456696E0,4.226872927E0
1.270201154E1,-2.393672333E0,2.322719879E0,-2.610720978E0,4.235629693E0
1.271201554E1,-2.526745605E0,1.956581268E0,-2.568359070E0,4.099892916E0
1.272202054E1,-2.354004822E0,1.497186584E0,-2.162852325E0,3.529991013E0
1.273202554E1,-1.771416321E0,1.088686066E0,-1.398392029E0,2.505724126E0
1.274202954E1,-8.958869934E-1,5.394781494E-1,-7.267387390E-1,1.273498871E0
1.275203454E1,-2.155517578E-2,-8.412506104E-2,-1.210981750E-1,1.490181851E-1
1.276203954E1,7.062313843E-1,-4.607418823E-1,5.553451538E-1,1.009680192E0
1.277204454E1,1.211580505E0,-4.909790039E-1,1.164278870E0,1.750580758E0
1.278204854E1,1.409319305E0,-5.348377991E-1,1.632804565E0,2.222224814E0
1.279205354E1,1.383273468E0,-5.619314575E-1,1.781894531E0,2.324728064E0
1.280205754E1,1.197659454E0,-4.348457336E-1,1.682052155E0,2.110160760E0
1.281206254E1,9.599537659E-1,-1.770817566E-1,1.209185486E0,1.554026615E0
1.282206754E1,1.068627777E0,-9.340576172E-2,7.900570679E-1,1.332246273E0
1.283207154E1,1.381028137E0,-7.798782349E-2,5.294490051E-1,1.481093199E0
1.284207654E1,1.621128845E0,2.350112915E-2,3.700305176E-1,1.662989363E0
1.285208154E1,1.709145813E0,1.399589539E-1,3.790118408E-1,1.756251091E0
1.286208554E1,1.685944061E0,3.186872864E-1,4.857398987E-1,1.783230836E0
1.287209054E1,1.690434723E0,5.162763977E-1,7.560777283E-1,1.922437100E0
1.288209554E1,1.569785614E0,6.752458191E-1,1.024918671E0,1.992647001E0
1.289209954E1,1.541644135E0,8.072712708E-1,1.410666504E0,2.240163728E0
1.290210454E1,1.712438965E0,8.994795227E-1,1.743424530E0,2.604042955E0
1.291210954E1,1.813029785E0,1.041683807E0,1.836680603E0,2.783087816E0
1.292211354E1,1.761087799E0,1.072968750E0,1.784888306E0,2.727364742E0
1.293211854E1,1.462309113E0,1.077160034E0,1.584305420E0,2.410113139E0
1.294212354E1,1.026714935E0,9.984237671E-1,1.447938995E0,2.036546319E0
1.295212754E1,6.045927429E-1,9.129515076E-1,1.451381836E0,1.818109478E0
1.296213254E1,2.112107849E-1,7.955955505E-1,1.434766388E0,1.654127221E0
1.297213754E1,-3.293151855E-3,5.707630920E-1,1.372795258E0,1.486723973E0
1.298214154E1,1.597178650E-1,2.204914856E-1,1.445543976E0,1.470960121E0
1.299214654E1,5.272036743E-1,-1.401086426E-1,1.456620941E0,1.555415929E0
1.300215154E1,9.499246216E-1,-4.465214539E-1,1.440604248E0,1.782436197E0
1.301215554E1,1.190025330E0,-6.203100586E-1,1.642085266E0,2.120704806E0
1.302216054E1,1.167422333E0,-6.486012268E-1,2.014361115E0,2.416859358E0
1.303216554E1,1.133143616E0,-6.957531738E-1,2.431094513E0,2.770975905E0
1.304216954E1,1.213526459E0,-8.436456299E-1,3.099155273E0,3.433532849E0
1.305217454E1,1.487456818E0,-8.422984314E-1,3.907624054E0,4.265151835E0
1.306217954E1,2.150577850E0,-6.259982300E-1,4.213737488E0,4.772048039E0
1.307218354E1,3.215014343E0,-4.082011414E-1,4.658013611E0,5.674507573E0
1.308218854E1,4.348906403E0,-1.971400452E-1,5.976172485E0,7.393678967E0
1.309219354E1,5.740861816E0,1.333726501E-1,8.214168549E0,1.002236737E1
1.310219754E1,6.595734100E0,7.203021240E-1,1.120464981E1,1.302177871E1
1.311220254E1,5.862858124E0,1.048120422E0,1.397329239E1,1.518962021E1
1.312220754E1,5.128784637E0,7.680528259E-1,1.677786026E1,1.756106295E1
1.313221154E1,6.371650085E0,1.467847595E0,2.044957489E1,2.146945771E1
1.314221654E1,9.509125671E0,2.183659058E0,2.508857803E1,2.691892616E1
1.315222154E1,1.280572037E1,2.072440338E0,2.961785934E1,3.233417813E1
1.316222554E1,1.534189636E1,1.407073975E0,3.112702103E1,3.473103913E1
1.317223054E1,1.724952942E1,6.150709534E-1,3.092808472E1,3.541851213E1
1.318223554E1,1.890942764E1,8.039781189E-1,3.096984787E1,3.629523814E1
1.319223954E1,1.897214722E1,1.346000977E0,2.994567764E1,3.547531111E1
1.320224454E1,1.624751312E1,1.925895081E0,2.695040634E1,3.152800591E1
1.321224954E1,1.243015137E1,2.404300232E0,2.308364731E1,2.632762989E1
1.322225354E1,9.821975098E0,2.947370911E0,1.960622864E1,2.212605684E1
1.323225854E1,7.971074066E0,3.539090424E0,1.708217743E1,1.917978020E1
1.324226354E1,7.222480774E0,3.522025909E0,1.532123932E1,1.730055691E1
1.325226754E1,7.086264038E0,3.374432831E0,1.397493896E1,1.602812697E1
1.326227254E1,7.064409485E0,3.153941345E0,1.305525146E1,1.517540175E1
1.327227754E1,7.005881195E0,3.008294220E0,1.271695496E1,1.482744579E1
1.328228154E1,6.893764343E0,3.054248657E0,1.287517593E1,1.492054212E1
1.329228654E1,6.898853760E0,3.075504456E0,1.315404602E1,1.516844875E1
1.330229154E1,6.907236328E0,3.101400604E0,1.350117416E1,1.547935087E1
1.331229554E1,6.964866486E0,3.035687256E0,1.357482101E1,1.555636615E1
1.332230054E1,6.681805115E0,2.887944489E0,1.321960968E1,1.509121675E1
1.333230608E1,6.177054749E0,2.582429810E0,1.253223907E1,1.420851735E1
1.334231008E1,5.770350494E0,2.334395599E0,1.167332520E1,1.322924294E1
1.335231508E1,5.339097290E0,2.324516144E0,1.048794022E1,1.199609208E1
1.336232008E1,4.807253265E0,2.354004822E0,8.987310791E0,1.046053430E1
1.337232408E1,4.137545929E0,2.142494659E0,7.500752106E0,8.830110522E0
1.338232908E1,3.545826416E0,2.009571075E0,6.277495880E0,7.484531743E0
1.339233408E1,3.210373993E0,1.973945160E0,5.260959778E0,6.471526748E0
1.340233808E1,2.886297913E0,1.870061188E0,4.346960449E0,5.542915265E0
1.341234308E1,2.614463196E0,1.612596588E0,3.595972137E0,4.729365832E0
1.342234808E1,2.479743347E0,1.401236115E0,3.028801575E0,4.157671066E0
1.343235208E1,2.287393341E0,1.386566620E0,2.548899536E0,3.694810433E0
1.344235708E1,1.934127960E0,1.348994751E0,2.105371857E0,3.161206804E0
1.345236208E1,1.555714874E0,1.191821594E0,1.752106476E0,2.628795273E0
1.346236608E1,1.403032379E0,1.064286804E0,1.638642426E0,2.405484412E0
1.347237108E1,1.366059265E0,1.035546570E0,1.613943787E0,2.354419071E0
1.348237608E1,1.390308838E0,9.524693298E-1,1.821262665E0,2.481361357E0
1.349238008E1,1.503473511E0,8.086184692E-1,2.074386292E0,2.686517246E0
1.350238508E1,1.797013092E0,5.854325867E-1,2.303859100E0,2.979891629E0
1.351239008E1,2.087109833E0,3.297642517E-1,2.632725220E0,3.375798276E0
1.352239408E1,2.300266571E0,1.422042847E-1,2.950963440E0,3.744280115E0
1.353239908E1,2.536924438E0,-4.281097412E-2,3.380270691E0,4.226588261E0
1.354240408E1,2.724783783E0,-1.173559570E-1,4.057163086E0,4.888639012E0
1.355240808E1,2.871778107E0,-1.151106262E-1,4.890180817E0,5.672233103E0
1.356241308E1,3.113226013E0,-2.248324585E-1,5.714666290E0,6.511538732E0
1.357241808E1,3.481909332E0,-3.095562744E-1,6.521638184E0,7.399410942E0
1.358242208E1,3.832480316E0,-3.302133179E-1,7.113507385E0,8.086960710E0
1.359242708E1,3.960763550E0,-3.623963928E-1,7.374714203E0,8.378865592E0
1.360243208E1,3.912264404E0,-3.626957703E-1,7.340585175E0,8.325956503E0
1.361243608E1,3.774850159E0,-3.778143311E-1,7.048243103E0,8.004371820E0
1.362244108E1,3.522474976E0,-2.998265076E-1,6.561455383E0,7.453215590E0
1.363244608E1,3.214714966E0,-1.237925720E-1,6.057752838E0,6.859014970E0
1.364245008E1,2.927911377E0,2.948867798E-2,5.730084229E0,6.434858186E0
1.365245508E1,2.683320007E0,1.899549866E-1,5.549859009E0,6.167432543E0
1.366246008E1,2.548899536E0,1.926493835E-1,5.402265930E0,5.976493940E0
1.367246408E1,2.423610077E0,2.615061951E-1,5.448669434E0,5.969109640E0
1.368246908E1,2.301763458E0,4.355941772E-1,5.749543762E0,6.208470889E0
1.369247408E1,2.289039917E0,4.999603271E-1,6.104306030E0,6.538517889E0
1.370247808E1,2.311343536E0,4.834945679E-1,6.391558685E0,6.813816725E0
1.371248308E1,2.408940582E0,4.041595459E-1,6.673422546E0,7.106399099E0
1.372248808E1,2.460732880E0,3.070115662E-1,6.926845551E0,7.357353579E0
1.373249208E1,2.500849457E0,1.993853760E-1,7.033573608E0,7.467607397E0
1.374249708E1,2.525548096E0,4.131408691E-2,7.102280731E0,7.538069489E0
1.375250208E1,2.561473389E0,3.382965088E-2,7.273824005E0,7.711731714E0
1.376250608E1,2.558030548E0,6.691085815E-2,7.427254944E0,7.855705783E0
1.377251108E1,2.577041016E0,1.466949463E-2,7.476951599E0,7.908613077E0
1.378251608E1,2.621348877E0,-3.936813354E-2,7.541168060E0,7.983873465E0
1.379252008E1,2.700833588E0,-8.547225952E-2,7.709418182E0,8.169267794E0
1.380252508E1,2.892435150E0,-1.892065430E-1,7.862998810E0,8.380258379E0
1.381252908E1,3.138972473E0,-2.640509033E-1,8.147856445E0,8.735584452E0
1.382253408E1,3.438499603E0,-3.132984924E-1,8.502469025E0,9.176786746E0
1.383253908E1,3.781137085E0,-4.679269409E-1,8.670719147E0,9.470867109E0
1.384254408E1,4.010160828E0,-5.592370605E-1,8.737630005E0,9.630177260E0
1.385254808E1,4.146826630E0,-5.960604858E-1,8.687184906E0,9.644617193E0
1.386255308E1,4.114344177E0,-5.459147644E-1,8.588240662E0,9.538539123E0
1.387255708E1,3.886667633E0,-3.911366272E-1,8.681796112E0,9.520123785E0
1.388256208E1,3.744313660E0,-2.808160400E-1,8.711584167E0,9.486329171E0
1.389256708E1,3.762875061E0,-3.625460815E-1,8.757837982E0,9.538888536E0
1.390257208E1,3.942800903E0,-5.819897461E-1,8.974437561E0,9.819619166E0
1.391257608E1,4.339625702E0,-8.517288208E-1,9.112899628E0,1.012930071E1
1.392258108E1,4.750221863E0,-1.024170227E0,9.437724152E0,1.061528000E1
1.393258608E1,5.089117126E0,-1.166973267E0,1.010743149E1,1.137633997E1
1.394259008E1,5.460494843E0,-1.130598907E0,1.104193817E1,1.237011141E1
1.395259508E1,5.818849640E0,-9.681866455E-1,1.200114349E1,1.337250319E1
1.396259908E1,6.236930237E0,-9.295669556E-1,1.299238220E1,1.444179313E1
1.397260408E1,6.617588654E0,-7.735913086E-1,1.410142593E1,1.559618981E1
1.398260908E1,7.313491516E0,-7.568261719E-1,1.497036896E1,1.667848586E1
1.399261308E1,7.908504181E0,-8.446934509E-1,1.514745071E1,1.710857120E1
1.400261808E1,8.475225677E0,-9.993218994E-1,1.523007889E1,1.745804678E1
1.401262308E1,8.992100830E0,-9.979747009E-1,1.525178375E1,1.773332283E1
1.402262708E1,9.130862274E0,-8.063731384E-1,1.538470734E1,1.790843665E1
1.403263208E1,8.937464447E0,-6.595285034E-1,1.555175995E1,1.794910823E1
1.404263708E1,8.693621521E0,-5.547463989E-1,1.560534851E1,1.787214875E1
1.405264108E1,8.847052460E0,-5.884263611E-1,1.582823502E1,1.814248072E1
1.406264608E1,9.340576172E0,-6.595285034E-1,1.632145935E1,1.881678443E1
1.407265108E1,9.948013000E0,-6.782395935E-1,1.753932678E1,2.017550385E1
1.408265508E1,1.064062271E1,-5.469625854E-1,1.926254333E1,2.201289612E1
1.409266008E1,1.164413589E1,-5.653742981E-1,2.090402985E1,2.393499556E1
1.410266508E1,1.332154770E1,-5.387297058E-1,2.257335846E1,2.621660495E1
1.411266908E1,1.535776337E1,-1.664538574E-1,2.414029999E1,2.861193258E1
1.412267408E1,1.685030960E1,-8.173004150E-2,2.538660828E1,3.046997692E1
1.413267908E1,1.744187943E1,-1.860630798E-1,2.627096924E1,3.153438761E1
1.414268308E1,1.734997055E1,9.595046997E-2,2.684951614E1,3.196759612E1
1.415268808E1,1.693159058E1,6.623725891E-1,2.677347427E1,3.168495576E1
1.416269308E1,1.691467575E1,7.234455872E-1,2.629701508E1,3.127559162E1
1.417269708E1,1.705493408E1,2.817141724E-1,2.557117447E1,3.073817013E1
1.418270208E1,1.694910416E1,1.526824951E-2,2.459280899E1,2.986768519E1
1.419270708E1,1.665017578E1,-5.872288513E-1,2.362447266E1,2.890828427E1
1.420271108E1,1.626173355E1,-8.762777710E-1,2.262455200E1,2.787619404E1
1.421271608E1,1.538276138E1,-9.394464111E-1,2.105566452E1,2.609315841E1
1.422272108E1,1.399948792E1,-1.186133423E0,1.866962631E1,2.336551992E1
1.423272508E1,1.251771927E1,-1.366508331E0,1.611174545E1,2.044869146E1
1.424273008E1,1.129775620E1,-1.416055298E0,1.372361160E1,1.783205045E1
1.425273508E1,9.850116577E0,-1.389410706E0,1.145552811E1,1.517182859E1
1.426273908E1,8.124804382E0,-1.244961090E0,9.438622284E0,1.251598837E1
1.427274408E1,6.032605133E0,-9.982740784E-1,7.853119354E0,9.952907084E0
1.428274908E1,4.035009155E0,-1.229842529E0,6.894213409E0,8.082325783E0
1.429275308E1,2.392025757E0,-1.847009125E0,5.686973877E0,6.440101071E0
1.430275808E1,1.204545135E0,-2.176773376E0,4.283043365E0,4.953153721E0
1.431276308E1,3.049159241E-1,-2.193388824E0,2.487676849E0,3.330535147E0
1.432276708E1,-9.217831421E-1,-2.363435211E0,1.309776306E-1,2.540209696E0
1.433277129E1,-2.746937714E0,-2.260000305E0,-2.860551453E0,4.564649252E0
1.434277629E1,-4.422253876E0,-1.436562653E0,-6.154751129E0,7.713689329E0
1.435278029E1,-5.934559021E0,-1.932481384E-1,-8.997040558E0,1.077975298E1
1.436278529E1,-7.311994629E0,7.488926697E-1,-1.074181229E1,1.301586097E1
1.437279029E1,-8.398285675E0,1.812131653E0,-1.106304428E1,1.400735422E1
1.438279429E1,-9.104367371E0,2.780168610E0,-9.681267700E0,1.357739986E1
1.439279929E1,-8.652307434E0,3.253184967E0,-7.428901520E0,1.185892972E1
1.440280429E1,-7.143295441E0,3.107837219E0,-4.860093384E0,9.181820606E0
1.441280829E1,-5.042414246E0,2.264041901E0,-2.263443146E0,5.972855433E0
1.442281329E1,-2.840343475E0,1.473535767E0,5.822891235E-1,3.252371341E0
1.443281829E1,-7.119195557E-1,8.812174988E-1,3.061882782E0,3.264735809E0
1.444282229E1,6.483018494E-1,9.026229858E-2,4.641398163E0,4.687325408E0
1.445282729E1,1.297501831E0,-6.033952332E-1,5.589975586E0,5.770218701E0
1.446283229E1,1.792971497E0,-7.635621643E-1,5.846691742E0,6.162919624E0
1.447283629E1,2.176923065E0,-8.384065247E-1,5.517675934E0,5.990548159E0
1.448284129E1,1.906136169E0,-9.050180054E-1,4.542154541E0,5.008351082E0
1.449284629E1,1.000818787E0,-6.921606445E-1,3.079396362E0,3.311103526E0
1.450285029E1,4.454736328E-1,-5.580395508E-1,1.537602539E0,1.695310139E0
1.451285529E1,3.195854187E-1,-5.379812622E-1,6.231541443E-1,8.831080148E-1
1.452286029E1,6.993457031E-1,-4.938230896E-1,3.980223083E-1,9.441225631E-1
1.453286429E1,1.123264160E0,-4.915777588E-1,4.902305603E-1,1.320491222E0
1.454286929E1,1.220412140E0,-6.593788147E-1,7.191046143E-1,1.562465250E0
1.455287429E1,1.293160858E0,-7.427554321E-1,8.622070313E-1,1.722600244E0
1.456287829E1,1.459614716E0,-6.432124329E-1,1.024469604E0,1.895714990E0
1.457288329E1,1.580712891E0,-4.945715332E-1,1.058448944E0,1.965596197E0
1.458288829E1,1.588347015E0,-4.703219604E-1,8.864566040E-1,1.878790648E0
1.459289229E1,1.435065765E0,-3.885919189E-1,6.430627441E-1,1.619860217E0
1.460289729E1,1.387015686E0,-2.826123047E-1,3.421884155E-1,1.456288138E0
1.461290229E1,1.406325531E0,-1.279838562E-1,9.535171509E-2,1.415352718E0
1.462290629E1,1.059945831E0,1.062789917E-2,-2.688409424E-1,1.093560044E0
1.463291129E1,4.825964355E-1,1.520837402E-1,-6.021977234E-1,7.865563436E-1
1.464291529E1,2.619552612E-2,2.541714478E-1,-7.770341492E-1,8.179678474E-1
1.465292029E1,-1.377136230E-1,3.989204407E-1,-7.711962891E-1,8.791167592E-1
1.466292529E1,9.086105347E-2,4.197271729E-1,-6.020480347E-1,7.395190780E-1
1.467292929E1,3.899391174E-1,3.626957703E-1,-4.043092346E-1,6.686304617E-1
1.468293429E1,5.876779175E-1,2.746788025E-1,-1.395098877E-1,6.635335621E-1
1.469293929E1,7.346722412E-1,2.423460388E-1,1.884580994E-1,7.962357438E-1
1.470294329E1,8.958869934E-1,2.068698120E-1,4.252656555E-1,1.013044669E0
1.471294829E1,9.246272278E-1,1.788780212E-1,6.685098267E-1,1.154919151E0
1.472295329E1,7.041357422E-1,2.305206299E-1,8.589138794E-1,1.134319160E0
1.473295729E1,4.769082642E-1,1.886077881E-1,8.762777710E-1,1.015321192E0
1.474296229E1,4.709207153E-1,1.037342834E-1,1.051563263E0,1.156854536E0
1.475296729E1,7.358697510E-1,1.721420288E-2,1.416504364E0,1.596334937E0
1.476297129E1,1.188528442E0,-7.918533325E-2,1.989512787E0,2.318842665E0
1.477297629E1,1.754800873E0,-2.471360779E-1,2.590662689E0,3.138779303E0
1.478298129E1,2.101629639E0,-4.264631653E-1,3.030448151E0,3.712456594E0
1.479298529E1,2.442919922E0,-5.736071777E-1,3.466790771E0,4.279663677E0
1.480299029E1,3.132835236E0,-4.067042542E-1,4.170477448E0,5.231916198E0
1.481299529E1,3.574566650E0,-4.595443726E-2,4.793930969E0,5.980084672E0
1.482299929E1,4.264631653E0,9.840536499E-1,5.068310394E0,6.696507670E0
1.483300429E1,4.440665588E0,2.215393066E0,6.217770081E0,7.955384471E0
1.484300929E1,3.663481750E0,3.619024200E0,8.191116486E0,9.675372033E0
1.485301329E1,3.247047729E0,4.892875214E0,1.135703293E1,1.278537226E1
1.486301829E1,3.568130035E0,5.594166870E0,1.466395615E1,1.609527461E1
1.487302329E1,4.490212555E0,5.699398041E0,1.723126740E1,1.869656982E1
1.488302729E1,6.208489380E0,6.033802643E0,2.033521271E1,2.210142508E1
1.489303229E1,8.451125793E0,6.364614716E0,2.600616989E1,2.807580311E1
1.490303729E1,1.099972595E1,6.086493073E0,3.119662628E1,3.363434049E1
1.491304129E1,1.310928909E1,5.419180756E0,3.259636551E1,3.554917756E1
1.492304629E1,1.540042465E1,4.645739136E0,3.326158218E1,3.694710842E1
1.493305129E1,1.695149918E1,3.946692810E0,3.262540512E1,3.697765227E1
1.494305529E1,1.552870789E1,3.645818481E0,3.004447220E1,3.401621776E1
1.495306029E1,1.219229599E1,3.954326935E0,2.575349533E1,2.876684384E1
1.496306529E1,9.419013062E0,4.170178070E0,2.137031021E1,2.372337140E1
1.497306929E1,7.333400116E0,4.742438049E0,1.805305847E1,2.005448569E1
1.498307429E1,5.786816254E0,4.952601013E0,1.579485443E1,1.753547620E1
1.499307929E1,5.302722931E0,4.907844086E0,1.451037552E1,1.620977488E1
1.500308329E1,5.517825623E0,4.891977081E0,1.410651535E1,1.591765104E1
1.501308829E1,5.892945557E0,4.792134705E0,1.455782684E1,1.642016092E1
1.502309329E1,6.025420074E0,4.606820068E0,1.507110947E1,1.687207215E1
1.503309729E1,6.079607391E0,4.401596832E0,1.527109360E1,1.701593313E1
1.504310229E1,6.197562103E0,4.114793243E0,1.543096115E1,1.713055345E1
1.505310729E1,6.161337433E0,3.920197906E0,1.565070419E1,1.727062744E1
1.506311129E1,5.994883575E0,3.695066071E0,1.588017700E1,1.737159071E1
1.507311629E1,5.728737030E0,3.366050262E0,1.589035583E1,1.722359228E1
1.508312129E1,5.604345703E0,3.050955505E0,1.575413910E1,1.699735035E1
1.509312529E1,5.542973328E0,2.862946472E0,1.520792496E1,1.643782216E1
1.510313029E1,5.222340088E0,2.694546661E0,1.426413757E1,1.542721746E1
1.511313529E1,4.693489838E0,2.414928131E0,1.314626221E1,1.416633103E1
1.512313929E1,4.164938965E0,2.233505402E0,1.186522614E1,1.277179918E1
1.513314429E1,3.788621521E0,2.022593994E0,1.059257263E1,1.143009774E1
1.514314929E1,3.467389526E0,1.708247681E0,9.244775391E0,1.002031797E1
1.515315329E1,3.279081116E0,1.404080200E0,7.836503906E0,8.610145623E0
1.516315829E1,3.060385895E0,1.319057007E0,6.558760986E0,7.356848434E0
1.517316329E1,2.869083710E0,1.161135406E0,5.516029358E0,6.325065742E0
1.518316729E1,2.663561096E0,1.128802643E0,4.617897034E0,5.449194999E0
1.519317229E1,2.430495758E0,1.218915253E0,3.978576508E0,4.818935053E0
1.520317729E1,2.263293457E0,1.346150665E0,3.657045135E0,4.506506187E0
1.521318129E1,2.167941742E0,1.660047913E0,3.794459381E0,4.674789029E0
1.522318629E1,2.369572449E0,1.772613831E0,4.534520416E0,5.414693785E0
1.523319129E1,2.937192078E0,1.669328613E0,5.269641724E0,6.259622929E0
1.524319529E1,3.259621582E0,1.525926819E0,5.708079987E0,6.748019165E0
1.525320029E1,3.029400330E0,1.277443542E0,5.809568939E0,6.675344157E0
1.526320529E1,2.812501373E0,1.231638794E0,5.257816315E0,6.088655886E0
1.527320929E1,2.349514160E0,1.306782532E0,4.243974609E0,5.023864833E0
1.528321429E1,1.818268890E0,1.388662262E0,3.306923218E0,4.021221929E0
1.529321829E1,1.662592621E0,1.416204987E0,2.508782959E0,3.326235518E0
1.530322329E1,1.685345306E0,1.428180084E0,2.044298859E0,3.009857966E0
1.531322829E1,1.847907257E0,1.238674164E0,2.054028625E0,3.027888457E0
1.532323329E1,2.146685944E0,1.067879333E0,2.513273621E0,3.473495517E0
1.533323742E1,2.516417084E0,1.072968750E0,3.255280609E0,4.252113442E0
1.534324242E1,2.823877716E0,1.153501282E0,4.095483398E0,5.106646143E0
1.535324642E1,3.005749512E0,1.135538635E0,4.750820618E0,5.735353055E0
1.536325142E1,3.136427765E0,1.103056183E0,5.364394684E0,6.311152224E0
1.537325642E1,3.321742401E0,1.111139374E0,5.907165985E0,6.867547835E0
1.538326042E1,3.538341980E0,1.142574005E0,6.327491913E0,7.339107114E0
1.539326542E1,3.774999847E0,1.164278870E0,6.632407837E0,7.719779974E0
1.540327042E1,4.000281372E0,1.122665405E0,6.690487061E0,7.875610819E0
1.541327442E1,4.147275696E0,1.058748322E0,6.471492462E0,7.758934102E0
1.542327942E1,4.045187988E0,9.868977356E-1,6.118526459E0,7.400937713E0
1.543328442E1,3.752097473E0,9.650431824E-1,5.684129791E0,6.878871657E0
1.544328842E1,3.577261047E0,9.827064514E-1,5.462141418E0,6.602840105E0
1.545329342E1,3.547922058E0,1.055754547E0,5.472769318E0,6.607085030E0
1.546329842E1,3.417243805E0,1.200503540E0,5.521268463E0,6.603269600E0
1.547330242E1,3.287763062E0,1.385518799E0,5.915099487E0,6.907781861E0
1.548330742E1,3.402424622E0,1.407672729E0,6.371799774E0,7.359202958E0
1.549331242E1,3.704795837E0,1.280587006E0,6.814279633E0,7.861286293E0
1.550331642E1,4.045187988E0,1.199904785E0,7.244335327E0,8.383538136E0
1.551332142E1,4.174369354E0,1.197060699E0,7.359745331E0,8.545417787E0
1.552332642E1,3.948938141E0,1.174457703E0,7.102729797E0,8.211104305E0
1.553333042E1,3.600462799E0,1.222507782E0,6.702911224E0,7.706288116E0
1.554333542E1,3.293900299E0,1.372046814E0,6.547534332E0,7.456708220E0
1.555334042E1,3.111130371E0,1.635349274E0,6.751110992E0,7.611241624E0
1.556334442E1,3.112776947E0,1.816472626E0,7.141798553E0,7.999639973E0
1.557334942E1,3.203638000E0,1.881138153E0,7.600594482E0,8.459965347E0
1.558335442E1,3.276087341E0,2.007625122E0,7.917335815E0,8.800426882E0
1.559335842E1,3.255879364E0,2.063459015E0,7.744894409E0,8.651127265E0
1.560336342E1,3.122207336E0,1.999990997E0,7.265591125E0,8.157018882E0
1.561336842E1,2.780318298E0,1.940265198E0,6.528074799E0,7.355988000E0
1.562337242E1,2.480641479E0,1.819765778E0,5.789660339E0,6.556317296E0
1.563337742E1,2.356848907E0,1.632205811E0,5.185516663E0,5.925235492E0
1.564338242E1,2.480342102E0,1.490749969E0,4.740342407E0,5.553852586E0
1.565338642E1,2.630928955E0,1.335522766E0,4.601431274E0,5.466130075E0
1.566339142E1,2.666105804E0,1.115929413E0,4.566254425E0,5.404081614E0
1.567339642E1,2.592009888E0,8.894503784E-1,4.501588898E0,5.270098655E0
1.568340042E1,2.395468597E0,9.232800293E-1,4.501588898E0,5.182182785E0
1.569340542E1,2.317929840E0,1.038690033E0,4.574786682E0,5.232623521E0
1.570341042E1,2.246528320E0,1.099463654E0,4.670886841E0,5.298385952E0
1.571341442E1,2.282752991E0,1.006806335E0,4.696633301E0,5.318174929E0
1.572341942E1,2.422412567E0,8.210426331E-1,4.787494354E0,5.427918187E0
1.573342442E1,2.612966309E0,7.370672607E-1,4.919519806E0,5.618944402E0
1.574342842E1,2.907703400E0,6.128256226E-1,5.412145386E0,6.174270158E0
1.575343342E1,3.264561310E0,4.577481079E-1,6.063141632E0,6.901346269E0
1.576343842E1,3.716172180E0,3.353027344E-1,6.795718231E0,7.752686623E0
1.577344242E1,4.178710327E0,3.754193115E-1,7.568112030E0,8.653258309E0
1.578344742E1,4.431684265E0,3.990701294E-1,8.143814850E0,9.280129455E0
1.579345242E1,4.444856873E0,4.095483398E-1,8.783883820E0,9.852974039E0
1.580345642E1,4.617747345E0,5.924679565E-1,9.436376953E0,1.052234854E1
1.581346142E1,4.910388794E0,9.080117798E-1,1.055365356E1,1.167544462E1
1.582346642E1,5.339546356E0,1.139729919E0,1.199844910E1,1.318228054E1
1.583347042E1,5.923332367E0,1.444346466E0,1.322005875E1,1.455822641E1
1.584347542E1,6.953789520E0,1.407073975E0,1.465392700E1,1.628105102E1
1.585348042E1,8.015681305E0,1.355581055E0,1.603839798E1,1.798107217E1
1.586348442E1,8.859626312E0,1.394799500E0,1.725357101E1,1.944541480E1
1.587348942E1,9.433233490E0,1.515298920E0,1.843536346E1,2.076402300E1
1.588349442E1,9.660910034E0,1.881138153E0,1.925191544E1,2.162193588E1
1.589349842E1,9.801467743E0,2.301613770E0,2.000275406E1,2.239366798E1
1.590350342E1,1.037941589E1,2.639161835E0,2.069820786E1,2.330479045E1
1.591350842E1,1.115225876E1,2.885848846E0,2.133453461E1,2.424589379E1
1.592351242E1,1.222223373E1,2.975811768E0,2.225003082E1,2.555977943E1
1.593351742E1,1.340866653E1,2.887944489E0,2.341236374E1,2.713432029E1
1.594352242E1,1.450184326E1,2.832260284E0,2.466959930E1,2.875611737E1
1.595352642E1,1.535671555E1,2.970123596E0,2.572161163E1,3.010401388E1
1.596353142E1,1.585353241E1,2.881507874E0,2.610122223E1,3.067427879E1
1.597353642E1,1.615650238E1,2.514620819E0,2.572146194E1,3.047867273E1
1.598354042E1,1.630214951E1,2.210153961E0,2.505878998E1,2.997645433E1
1.599354542E1,1.615740051E1,2.032174072E0,2.461286728E1,2.951244752E1
1.600354942E1,1.586490875E1,1.712139587E0,2.433504501E1,2.910019188E1
1.601355442E1,1.575114532E1,1.263672180E0,2.380829041E1,2.857499149E1
1.602355942E1,1.556029221E1,1.004860382E0,2.306179276E1,2.783843967E1
1.603356442E1,1.530627045E1,7.250921631E-1,2.193149323E1,2.675440279E1
1.604356842E1,1.506602005E1,3.282673645E-1,2.061213684E1,2.553336846E1
1.605357342E1,1.451262085E1,3.098556519E-2,1.932271820E1,2.416577254E1
1.606357742E1,1.385818176E1,-1.651066589E-1,1.822639801E1,2.289711874E1
1.607358242E1,1.332514023E1,-1.320254517E-1,1.734068985E1,2.186952943E1
1.608358742E1,1.283715500E1,-5.837860107E-2,1.636067780E1,2.079585859E1
1.609359142E1,1.171823181E1,-3.293151855E-2,1.472937012E1,1.882212489E1
1.610359642E1,1.049243088E1,-1.559756470E-1,1.295570847E1,1.667230686E1
1.611360142E1,9.741741943E0,-3.347039795E-1,1.142843445E1,1.502074155E1
1.612360542E1,9.187145233E0,-6.027964783E-1,1.037282959E1,1.386948430E1
1.613361042E1,8.388705597E0,-9.882449341E-1,9.174721069E0,1.247086670E1
1.614361542E1,7.171885986E0,-1.184187469E0,7.703580322E0,1.059166646E1
1.615361942E1,5.652246094E0,-1.188977509E0,5.964796143E0,8.303032364E0
1.616362442E1,4.269571381E0,-1.052461395E0,4.080963593E0,5.999264839E0
1.617362942E1,3.474125519E0,-8.866062927E-1,2.683769073E0,4.478642124E0
1.618363342E1,2.937790833E0,-6.605763245E-1,1.224304047E0,3.250522489E0
1.619363842E1,1.572180634E0,-1.848655701E-1,-7.795788574E-1,1.764559554E0
1.620364342E1,-3.933819580E-1,3.176394653E-1,-2.938539276E0,2.981720522E0
1.621364742E1,-2.202968903E0,7.203021240E-1,-5.046605530E0,5.553389461E0
1.622365242E1,-3.992048492E0,1.646725616E0,-6.842870178E0,8.091540564E0
1.623365742E1,-5.765560455E0,2.538870392E0,-7.994425507E0,1.017832940E1
1.624366142E1,-7.081024933E0,3.107088776E0,-8.630003815E0,1.158757441E1
1.625366642E1,-7.515122223E0,3.154689789E0,-8.421038361E0,1.171934370E1
1.626367142E1,-7.378905487E0,2.885250092E0,-7.079228668E0,1.062489496E1
1.627367542E1,-6.473288727E0,2.449506226E0,-5.070705414E0,8.579953443E0
1.628368042E1,-4.931494904E0,1.686692505E0,-2.753823395E0,5.894753335E0
1.629368542E1,-3.232378235E0,7.247927856E-1,-2.188449097E-1,3.319862456E0
1.630368942E1,-1.487905884E0,-5.538482666E-3,2.147733765E0,2.612786811E0
1.631369442E1,-1.257385254E-1,-8.767268372E-1,4.143982544E0,4.237576129E0
1.632369942E1,7.729925537E-1,-1.548529816E0,5.445376282E0,5.713806518E0
1.633370396E1,1.352287903E0,-1.891316986E0,6.117179260E0,6.544130547E0
1.634370896E1,1.177900543E0,-1.722468109E0,5.808221741E0,6.171692302E0
1.635371396E1,5.453160095E-1,-1.362616425E0,4.633913727E0,4.860786922E0
1.636371796E1,1.992356873E-1,-1.124910736E0,3.397035828E0,3.583988203E0
1.637372296E1,-2.559677124E-2,-6.161187744E-1,2.392175446E0,2.470376672E0
1.638372796E1,-4.206253052E-2,-3.022215271E-1,1.764081573E0,1.790276768E0
1.639373196E1,1.188528442E-1,-1.193019104E-1,1.346150665E0,1.356643121E0
1.640373696E1,1.663041687E-1,1.601669312E-1,9.849517822E-1,1.011652379E0
1.641374196E1,7.020401001E-2,3.091072083E-1,5.914201355E-1,6.710094231E-1
1.642374596E1,3.293151855E-2,3.177891541E-1,4.131408691E-1,5.222641181E-1
1.643375096E1,2.010319519E-1,4.218228149E-1,5.041516113E-1,6.873988508E-1
1.644375596E1,5.117857361E-1,4.843927002E-1,6.950047302E-1,9.897436550E-1
1.645375996E1,6.132746887E-1,5.629792786E-1,6.324348450E-1,1.045478524E0
1.646376496E1,3.270698547E-1,6.575825500E-1,3.318598938E-1,8.059283399E-1
1.647376996E1,-2.454895020E-2,6.376739502E-1,-8.801696777E-2,6.441876313E-1
1.648377396E1,-1.531315613E-1,6.936575317E-1,-4.571493530E-1,8.447458656E-1
1.649377896E1,-2.836601257E-1,8.092172241E-1,-7.005432129E-1,1.107274300E0
1.650378396E1,-4.418811035E-1,7.569758606E-1,-8.819659424E-1,1.243436885E0
1.651378796E1,-5.203179932E-1,5.173242188E-1,-9.794132996E-1,1.223766960E0
1.652379296E1,-4.932243347E-1,3.400927734E-1,-8.940907288E-1,1.076258134E0
1.653379796E1,-2.309696960E-1,1.577719116E-1,-5.992039490E-1,6.612747909E-1
1.654380196E1,1.374142456E-1,-4.685256958E-2,-2.046244812E-1,2.508964258E-1
1.655380696E1,4.749623108E-1,-1.772314453E-1,2.252815247E-1,5.547539520E-1
1.656381196E1,7.595205688E-1,-2.115101624E-1,7.107220459E-1,1.061477211E0
1.657381596E1,1.005758514E0,-2.276765442E-1,1.205293579E0,1.586228045E0
1.658382096E1,1.157243500E0,-3.088078308E-1,1.607656860E0,2.004778136E0
1.659382596E1,1.235680389E0,-2.999761963E-1,1.824555817E0,2.223936976E0
1.660382996E1,1.225800934E0,-2.249821472E-1,1.961221619E0,2.323702893E0
1.661383496E1,1.212778015E0,-1.228944397E-1,2.237996063E0,2.548442649E0
1.662383996E1,1.301393738E0,-4.864883423E-2,2.649041290E0,2.951848934E0
1.663384396E1,1.611548767E0,-1.236428833E-1,3.033741302E0,3.437435568E0
1.664384896E1,2.116897888E0,-2.748284912E-1,3.391048279E0,4.006993361E0
1.665385396E1,2.679128723E0,-3.038681030E-1,3.920946350E0,4.758559322E0
1.666385796E1,3.256328430E0,-3.195854187E-1,4.592300262E0,5.638708308E0
1.667386296E1,3.832180939E0,-2.255809021E-1,5.596561890E0,6.786604635E0
1.668386796E1,4.029620361E0,6.146218872E-1,6.376589813E0,7.568123808E0
1.669387196E1,3.717519379E0,1.510808258E0,7.563771057E0,8.562308364E0
1.670387696E1,2.925666046E0,2.209405518E0,9.496402130E0,1.017952101E1
1.671388196E1,2.569855957E0,3.209326172E0,1.218421280E1,1.285919810E1
1.672388596E1,2.580783234E0,4.405039673E0,1.482217712E1,1.567679021E1
1.673389096E1,2.846630402E0,5.207071838E0,1.741523483E1,1.839856804E1
1.674389596E1,3.870201874E0,6.099515991E0,2.006801834E1,2.132857046E1
1.675389996E1,5.788462830E0,6.693780212E0,2.315924011E1,2.479240606E1
1.676390496E1,7.434440002E0,6.542444916E0,2.587609039E1,2.770643495E1
1.677390896E1,9.085656281E0,6.017336884E0,2.692900085E1,2.905044888E1
1.678391396E1,1.129281647E1,5.720653839E0,2.736489441E1,3.015113647E1
