"Time (s)","Acceleration x (m/s^2)","Acceleration y (m/s^2)","Acceleration z (m/s^2)","Absolute acceleration (m/s^2)"
4.094500036E-3,2.032772827E0,2.268083496E0,8.323890381E0,8.863606443E0
1.410050003E-2,1.884281616E0,1.894310760E0,8.253836060E0,8.675525354E0
2.410550002E-2,1.355131989E0,1.646875305E0,8.543633423E0,8.805807915E0
3.411050001E-2,5.926176453E-1,1.762584686E0,8.999734955E0,9.189838394E0
4.411650001E-2,1.691482544E-2,2.078427887E0,9.573042755E0,9.796085758E0
5.412150006E-2,-3.637435913E-1,2.600542145E0,1.009979736E1,1.043556590E1
6.412750005E-2,-4.975653076E-1,3.024909668E0,1.044333298E1,1.088397232E1
7.413250004E-2,-3.965254211E-1,3.310964813E0,1.070468948E1,1.121205143E1
8.413750003E-2,-8.442443848E-2,3.491788788E0,1.081126785E1,1.136148005E1
9.414350003E-2,1.983375549E-1,3.454965363E0,1.073911789E1,1.128294184E1
1.041485000E-1,3.598516846E-1,3.205434265E0,1.060305084E1,1.108282406E1
1.141535000E-1,6.086343384E-1,2.870430908E0,1.040186920E1,1.080780700E1
1.241595000E-1,9.388476562E-1,2.506687317E0,1.022897873E1,1.057340636E1
1.341645001E-1,1.229094086E0,2.165995789E0,1.002824615E1,1.033285686E1
1.441705000E-1,1.337468719E0,1.793121185E0,9.806407471E0,1.005831664E1
1.541755000E-1,1.299597473E0,1.429527283E0,9.696535950E0,9.887128565E0
1.641805000E-1,1.018332367E0,1.084045715E0,9.528585205E0,9.643966608E0
1.741865000E-1,7.086264038E-1,8.375083923E-1,9.316176910E0,9.380550299E0
1.841915000E-1,6.339317322E-1,8.925938416E-1,9.095835114E0,9.161485121E0
1.941975000E-1,4.975653076E-1,1.225351868E0,8.858428802E0,8.956607577E0
2.042025001E-1,2.698887634E-1,1.452729034E0,8.844956818E0,8.967526008E0
2.142075000E-1,1.279838562E-1,1.425335999E0,9.020841064E0,9.133648564E0
2.242135000E-1,-1.107696533E-2,1.152752838E0,9.032516785E0,9.105785044E0
2.342185000E-1,5.553451538E-2,8.273295593E-1,9.009614410E0,9.047690872E0
2.442235000E-1,-6.571334839E-2,1.767823792E-1,8.795260162E0,8.797282056E0
2.542295000E-1,2.291734314E-1,8.967851257E-1,8.751850433E0,8.800660772E0
2.642345000E-1,1.237326965E0,1.940564575E0,8.790619812E0,9.086900768E0
2.742391250E-1,1.420545959E0,2.614014130E0,8.981023865E0,9.460962443E0
2.842451250E-1,1.191971283E0,3.042423248E0,9.489217072E0,1.003605378E1
2.942501250E-1,9.729766846E-1,2.430196381E0,9.514963531E0,9.868488693E0
3.042561250E-1,4.336482239E-1,1.678459625E0,9.368418274E0,9.527462330E0
3.142611251E-1,-1.631607056E-2,1.237326965E0,9.382189636E0,9.463441583E0
3.242661250E-1,-8.337661743E-2,1.108444977E0,9.511371002E0,9.576104650E0
3.342721250E-1,5.688171387E-2,1.249751129E0,9.710457001E0,9.790714406E0
3.442771250E-1,4.475692749E-2,1.500779114E0,9.711205444E0,9.826589048E0
3.542831250E-1,3.697311401E-2,1.606159973E0,9.555229797E0,9.689351544E0
3.642881250E-1,5.405259705E-1,1.587149506E0,9.637558594E0,9.782318106E0
3.742931250E-1,4.912783813E-1,1.518292694E0,9.507479095E0,9.640473324E0
3.842991251E-1,6.283932495E-1,1.447639618E0,9.724228363E0,9.851454502E0
3.943041250E-1,6.354286194E-1,1.411714325E0,1.013362701E1,1.025120009E1
4.043091250E-1,2.947370911E-1,1.304836578E0,1.040261765E1,1.048827547E1
4.143151250E-1,-9.280700684E-3,1.153201904E0,1.062610291E1,1.068849960E1
4.243201250E-1,-2.441423035E-1,1.056053925E0,1.071367081E1,1.076836095E1
4.343261250E-1,-3.541635132E-1,9.827064514E-1,1.075363770E1,1.080425229E1
4.443311250E-1,-4.029620361E-1,1.050814819E0,1.062745010E1,1.068687447E1
4.543361251E-1,-3.731739807E-1,1.237476654E0,1.042611877E1,1.050592975E1
4.643421251E-1,-2.038760376E-1,1.437011719E0,1.028541138E1,1.038731223E1
4.743471250E-1,8.532257080E-3,1.636247406E0,1.016027161E1,1.029118543E1
4.843521250E-1,1.167572021E-1,1.781445465E0,1.004022125E1,1.019770675E1
4.943581250E-1,1.853146362E-1,1.816622314E0,9.991422729E0,1.015691815E1
5.043631250E-1,1.793270874E-1,1.735191650E0,9.948312378E0,1.010009740E1
5.143691250E-1,7.933502197E-3,1.498833160E0,9.714648285E0,9.829595876E0
5.243741250E-1,-2.731819153E-1,1.227148132E0,9.357191620E0,9.441268766E0
5.343791250E-1,-3.580554199E-1,1.136287079E0,9.123228149E0,9.200687141E0
5.443851250E-1,-3.921844482E-2,1.304986267E0,9.300459595E0,9.391649265E0
5.543901250E-1,4.076023865E-1,1.580263824E0,9.840835876E0,9.975240559E0
5.643961250E-1,6.598278809E-1,1.673220520E0,1.057520874E1,1.072707228E1
5.744011250E-1,7.390132141E-1,1.484463043E0,1.141017242E1,1.153003928E1
5.844061250E-1,7.075785828E-1,1.118025055E0,1.210921875E1,1.218129001E1
5.944121250E-1,5.086422729E-1,6.462062073E-1,1.236368958E1,1.239100962E1
6.044171251E-1,2.592608643E-1,1.902543640E-1,1.226235031E1,1.226656627E1
6.144221250E-1,3.023712158E-2,-2.655477905E-1,1.172212372E1,1.172517012E1
6.244281250E-1,-8.532257080E-2,-5.248086548E-1,1.099778000E1,1.101062528E1
6.344331250E-1,-4.640350342E-3,-4.824467468E-1,1.017269577E1,1.018413058E1
6.444391250E-1,2.252815247E-1,-1.826202393E-1,9.287137299E0,9.291664066E0
6.544441250E-1,5.942642212E-1,2.884501648E-1,8.559949493E0,8.585399746E0
6.644491250E-1,9.394464111E-1,7.216493225E-1,8.071814575E0,8.158279711E0
6.744551250E-1,1.143921204E0,9.541159058E-1,7.878716125E0,8.018295372E0
6.844601250E-1,1.169068909E0,9.647438049E-1,8.047714691E0,8.189210247E0
6.944651250E-1,1.067879333E0,7.900570679E-1,8.377478943E0,8.482140643E0
7.044711250E-1,9.002279663E-1,4.888833618E-1,8.623417511E0,8.684051295E0
7.144761250E-1,7.470964050E-1,2.667453003E-1,8.807384949E0,8.843038829E0
7.244821250E-1,6.366261292E-1,2.320175171E-1,9.026379547E0,9.051776217E0
7.344871250E-1,4.975653076E-1,3.522175598E-1,9.227710876E0,9.247825499E0
7.444921251E-1,3.315605164E-1,5.878276062E-1,9.398805084E0,9.423004334E0
7.544981251E-1,2.115101624E-1,8.881031799E-1,9.606573029E0,9.649855396E0
7.645031250E-1,1.148112488E-1,1.141226807E0,9.803862762E0,9.870729725E0
7.745081250E-1,1.122665405E-2,1.303190002E0,9.985734558E0,1.007041831E1
7.845141250E-1,2.320175171E-2,1.401685181E0,1.015922379E1,1.025549061E1
7.945191250E-1,6.062393188E-2,1.361269226E0,1.031714539E1,1.040673907E1
8.045251250E-1,1.047821045E-3,1.110989685E0,1.029798523E1,1.035774102E1
8.145301250E-1,-9.086105347E-2,7.500901794E-1,1.016536102E1,1.019340256E1
8.245351251E-1,-1.977388000E-1,4.399351501E-1,1.006821304E1,1.007975979E1
8.345411250E-1,-2.797682190E-1,2.462379456E-1,9.978399811E0,9.985357588E0
8.445461250E-1,-3.477268982E-1,2.077679443E-1,9.829908600E0,9.838251094E0
8.545511250E-1,-3.137475586E-1,2.948867798E-1,9.654323730E0,9.663920656E0
8.645571250E-1,-2.097138977E-1,4.438270569E-1,9.451645203E0,9.464383731E0
8.745621250E-1,-7.304809570E-2,6.197113037E-1,9.207053833E0,9.228175248E0
8.845681250E-1,3.098556519E-2,7.679031372E-1,8.915310516E0,8.948373983E0
8.945731251E-1,8.607101440E-2,9.159452820E-1,8.700956268E0,8.749457352E0
9.045781250E-1,1.014889526E-1,1.070424042E0,8.619824982E0,8.686627099E0
9.145841250E-1,5.882766724E-2,1.191073151E0,8.633895721E0,8.715863197E0
9.245891250E-1,-4.266128540E-2,1.253493347E0,8.681347046E0,8.771479470E0
9.345941250E-1,-1.387614441E-1,1.272354126E0,8.767268372E0,8.860199459E0
9.446001250E-1,-2.085163879E-1,1.234782257E0,8.916508026E0,9.004014754E0
9.546051250E-1,-2.547702026E-1,1.198407898E0,9.067843323E0,9.150238897E0
9.646111250E-1,-2.427951050E-1,1.229992218E0,9.238488464E0,9.323170031E0
9.746161251E-1,-2.107617188E-1,1.288520508E0,9.369166718E0,9.459703514E0
9.846211250E-1,-1.727407837E-1,1.325194244E0,9.480834503E0,9.574560149E0
9.946271250E-1,-1.282832336E-1,1.323996735E0,9.573342133E0,9.665314456E0
1.004632125E0,-5.867797852E-2,1.280587006E0,9.644743652E0,9.729564549E0
1.014638125E0,-2.050735474E-2,1.251248016E0,9.689350891E0,9.769829212E0
1.024643125E0,4.176315308E-2,1.250798950E0,9.750423889E0,9.830412412E0
1.034648125E0,1.213975525E-1,1.290167084E0,9.838291168E0,9.923267687E0
1.044654125E0,1.793270874E-1,1.315614166E0,9.907746735E0,9.996321533E0
1.054659125E0,1.835183716E-1,1.294058990E0,1.002779709E1,1.011261500E1
1.064664125E0,1.252894592E-1,1.224304047E0,1.026310776E1,1.033663382E1
1.074670125E0,1.661544800E-2,1.062191162E0,1.047791107E1,1.053162602E1
1.084675125E0,-9.849517822E-2,9.391470337E-1,1.068014053E1,1.072180490E1
1.094681125E0,-1.878593445E-1,8.372090149E-1,1.084913910E1,1.088301563E1
1.104686125E0,-2.716850281E-1,7.105723572E-1,1.088611221E1,1.091266076E1
1.114691125E0,-2.984793091E-1,6.454577637E-1,1.086844894E1,1.089168894E1
1.124697125E0,-2.493814087E-1,7.111711121E-1,1.075154205E1,1.077792243E1
1.134702125E0,-1.511856079E-1,8.461903381E-1,1.056428146E1,1.059919516E1
1.144707125E0,-2.155517578E-2,9.529183960E-1,1.038824753E1,1.043188405E1
1.154713125E0,7.424560547E-2,9.957293701E-1,1.022583527E1,1.027446817E1
1.164718125E0,1.185534668E-1,9.821076965E-1,1.003617966E1,1.008481495E1
1.174724125E0,1.534309387E-1,9.592053223E-1,9.856403503E0,9.904155993E0
1.184729125E0,2.974314880E-1,9.857002258E-1,9.892927551E0,9.946360438E0
1.194734125E0,4.664300537E-1,1.055604858E0,1.016161880E1,1.022694262E1
1.204740125E0,5.270539856E-1,1.126856689E0,1.060858932E1,1.068128079E1
1.214745125E0,3.583547974E-1,1.060245209E0,1.113893646E1,1.119501869E1
1.224750125E0,4.864883423E-2,9.128018188E-1,1.159009827E1,1.162608927E1
1.234756125E0,-2.474354553E-1,7.343728638E-1,1.180385376E1,1.182926419E1
1.244761125E0,-4.522096252E-1,5.200186157E-1,1.174682236E1,1.176701952E1
1.254767125E0,-5.686674500E-1,2.544708252E-1,1.145642624E1,1.147335349E1
1.264772125E0,-5.269042969E-1,4.715194702E-2,1.102427490E1,1.103696011E1
1.274777375E0,-4.095483398E-1,-8.412506104E-2,1.057670563E1,1.058496617E1
1.284783375E0,-3.138972473E-1,-1.445993042E-1,1.011386810E1,1.011977117E1
1.294788375E0,-2.507286072E-1,-9.595046997E-2,9.650880890E0,9.654614093E0
1.304793375E0,-2.218386841E-1,-3.427871704E-2,9.236991577E0,9.239718655E0
1.314799375E0,-3.013233948E-1,5.134323120E-2,8.790619812E0,8.795932503E0
1.324804375E0,-3.375480652E-1,2.305206299E-1,8.352480927E0,8.362476672E0
1.334810375E0,-2.963836670E-1,5.031037903E-1,8.048014069E0,8.069168926E0
1.344815375E0,-2.637515259E-1,8.199948120E-1,8.010591888E0,8.056769747E0
1.354820375E0,-3.221301270E-1,1.049018555E0,8.313112793E0,8.385228205E0
1.364826375E0,-5.215155029E-1,1.080453186E0,8.797954559E0,8.879378466E0
1.374831375E0,-7.458988953E-1,1.086889801E0,9.219477997E0,9.313241602E0
1.384836375E0,-8.436456299E-1,1.262175293E0,9.664502563E0,9.783017644E0
1.394842375E0,-8.072712708E-1,1.528471527E0,1.017868332E1,1.032441312E1
1.404847375E0,-7.258406067E-1,1.722168732E0,1.066906357E1,1.083151084E1
1.414853375E0,-6.774911499E-1,1.700463867E0,1.107172623E1,1.122201823E1
1.424858375E0,-7.107220459E-1,1.429227905E0,1.125793900E1,1.137053247E1
1.434863375E0,-7.643106079E-1,9.886940002E-1,1.119027969E1,1.125984219E1
1.444869375E0,-7.584727478E-1,5.902226257E-1,1.090123077E1,1.094351297E1
1.454874375E0,-7.255412292E-1,3.909869385E-1,1.056083862E1,1.059295017E1
1.464880375E0,-2.844085693E-1,9.400451660E-2,1.025712021E1,1.026149307E1
1.474885375E0,-2.812651062E-1,5.807922363E-2,9.775571594E0,9.779789530E0
1.484890375E0,-1.213975525E-1,1.402583313E-1,9.392967224E0,9.394798723E0
1.494896375E0,7.499404907E-2,8.547225952E-2,9.241931305E0,9.242630787E0
1.504901375E0,-9.220825195E-2,7.095245361E-2,9.077423401E0,9.078168990E0
1.514906375E0,-1.889071655E-1,1.221459961E-1,8.858129425E0,8.860985412E0
1.524912375E0,-1.498384094E-1,2.815644836E-1,8.628357239E0,8.634250329E0
1.534917375E0,-7.155120850E-2,4.827461243E-1,8.441396027E0,8.455491131E0
1.544923375E0,-2.859054565E-2,6.086343384E-1,8.324040070E0,8.346310338E0
1.554928375E0,-1.143621826E-1,8.560697937E-1,8.224497070E0,8.269721051E0
1.564933375E0,-9.235794067E-2,1.226399689E0,8.234825592E0,8.326159902E0
1.574939375E0,5.538482666E-3,1.593137054E0,8.345295868E0,8.496003735E0
1.584944375E0,-3.757186890E-2,1.856439514E0,8.558602295E0,8.757708180E0
1.594949375E0,-1.426533508E-1,1.968406677E0,8.863667908E0,9.080725940E0
1.604955375E0,-2.743794250E-1,1.944755859E0,9.203311615E0,9.410542179E0
1.614960375E0,-4.540058899E-1,1.798959045E0,9.568103027E0,9.746331132E0
1.624965375E0,-6.047424316E-1,1.632056122E0,9.969119110E0,1.011991385E1
1.634971375E0,-7.384144592E-1,1.443897400E0,1.043195663E1,1.055726361E1
1.644976375E0,-6.715036011E-1,1.391206970E0,1.119761444E1,1.130366945E1
1.654982375E0,-4.433779907E-1,1.369651794E0,1.063807800E1,1.073504698E1
1.664987375E0,-4.686753845E-1,1.305585022E0,1.045875092E1,1.055034026E1
1.674992375E0,-3.393443298E-1,1.116977234E0,1.010952713E1,1.017670534E1
1.684998375E0,-3.254232788E-1,8.644523621E-1,9.643695831E0,9.687829864E0
1.695003375E0,-3.424877930E-1,7.575746155E-1,9.272916870E0,9.310113021E0
1.705008375E0,-3.135978699E-1,8.265811157E-1,8.990903320E0,9.034263804E0
1.715014375E0,-1.603166199E-1,1.050216064E0,8.879534912E0,8.942862822E0
1.725019375E0,3.038681030E-2,1.245709534E0,9.010213165E0,9.095969266E0
1.735025375E0,-9.160949707E-2,1.381477203E0,9.069789276E0,9.174854172E0
1.745030375E0,-3.177891541E-1,1.432221680E0,9.159602509E0,9.276344485E0
1.755035375E0,-4.279600525E-1,1.378633118E0,9.094936981E0,9.208781557E0
1.765041375E0,-3.146456909E-1,1.460213470E0,9.103469238E0,9.225203383E0
1.775046375E0,-2.067201233E-1,1.667232971E0,9.252259827E0,9.403547782E0
1.785052375E0,-2.004331970E-1,1.812880096E0,9.522148590E0,9.695257680E0
1.795057375E0,-3.017724609E-1,1.835034027E0,9.798473969E0,9.973390026E0
1.805062375E0,-4.001179504E-1,1.788929901E0,1.007914032E1,1.024448311E1
1.815068375E0,-5.014572144E-1,1.706900482E0,1.032268387E1,1.047486376E1
1.825073375E0,-7.436535645E-1,1.376836853E0,1.016566040E1,1.028539507E1
1.835078375E0,-9.032217407E-1,4.842430115E-1,9.577832794E0,9.632506519E0
1.845084375E0,-7.638615417E-1,9.816586304E-1,9.178313599E0,9.262212405E0
1.855089375E0,-2.676434326E-1,1.898202667E0,9.178163910E0,9.376219874E0
1.865095375E0,6.756948853E-1,2.544408875E0,9.382638702E0,9.744972505E0
1.875100375E0,1.355281677E0,2.910098419E0,9.881401520E0,1.038978139E1
1.885105375E0,1.126557312E0,2.741249542E0,1.031280441E1,1.073021506E1
1.895111375E0,4.326004028E-2,2.160307617E0,1.048030609E1,1.070072970E1
1.905116375E0,-3.013233948E-1,1.667232971E0,1.072250244E1,1.085552947E1
1.915121375E0,-1.901046753E-2,1.461261292E0,1.097577576E1,1.107263742E1
1.925127375E0,-2.433938599E-1,1.276395721E0,1.069121750E1,1.076989128E1
1.935132375E0,-2.444416809E-1,1.165626068E0,1.032777328E1,1.039621743E1
1.945137375E0,-1.336720276E-1,1.042581940E0,1.024334885E1,1.029713751E1
1.955143375E0,9.864486694E-2,8.881031799E-1,1.031834290E1,1.035696182E1
1.965148375E0,1.276844788E-1,7.461982727E-1,1.023376877E1,1.026173174E1
1.975154375E0,1.300794983E-1,5.652246094E-1,9.999954987E0,1.001676092E1
1.985159375E0,3.183879089E-1,4.240681458E-1,9.764344940E0,9.778733904E0
1.995164375E0,5.866300964E-1,2.728825378E-1,9.497300262E0,9.519312582E0
2.005170375E0,7.646099854E-1,1.260379028E-1,9.110803986E0,9.143700741E0
2.015175375E0,8.240364075E-1,5.343887329E-2,8.765621796E0,8.804431678E0
2.025180375E0,8.288264465E-1,-1.990859985E-2,8.553662567E0,8.593747317E0
2.035186375E0,7.117698669E-1,-8.741821289E-2,8.376880188E0,8.407519252E0
2.045191375E0,6.292913818E-1,-1.392105103E-2,8.351582794E0,8.375269345E0
2.055197375E0,5.680686951E-1,2.258802795E-1,8.572373657E0,8.594144173E0
2.065202375E0,4.782554626E-1,5.399272156E-1,8.944799194E0,8.973833201E0
2.075207375E0,3.573069763E-1,8.307723999E-1,9.717342682E0,9.759333986E0
2.085213375E0,2.306703186E-1,1.053658905E0,1.046982788E1,1.052524117E1
2.095218375E0,-7.978408813E-2,1.158291321E0,1.069945038E1,1.076226011E1
2.105223375E0,-3.118016052E-1,1.055006104E0,1.153935379E1,1.159167563E1
2.115229375E0,-4.168830872E-1,8.936416626E-1,1.197345108E1,1.201398842E1
2.125234375E0,-6.623725891E-1,6.741979980E-1,1.169577850E1,1.173390452E1
2.135240375E0,-6.914122009E-1,4.734654236E-1,1.150507507E1,1.153555256E1
2.145245375E0,-6.286926270E-1,2.778222656E-1,1.113249985E1,1.115369860E1
2.155250375E0,-6.297404480E-1,7.798782349E-2,1.043539948E1,1.045467443E1
2.165256375E0,-5.539979553E-1,-2.589614868E-2,9.747430115E0,9.763195081E0
2.175261375E0,-4.282594299E-1,3.592529297E-2,9.235494690E0,9.245488572E0
2.185266375E0,-2.658471680E-1,2.700384521E-1,8.820557556E0,8.828693623E0
2.195272375E0,-6.406677246E-2,5.592370605E-1,8.568781128E0,8.587249889E0
2.205277375E0,6.765930176E-2,7.652087402E-1,8.433013458E0,8.467929982E0
2.215283375E0,1.275347900E-1,8.836125183E-1,8.323890381E0,8.371629906E0
2.225288375E0,1.645079041E-1,9.306147766E-1,8.247549133E0,8.301516333E0
2.235293375E0,1.092727661E-1,8.755293274E-1,8.241112518E0,8.288210161E0
2.245299375E0,-2.245330811E-2,8.131091309E-1,8.330326996E0,8.369946145E0
2.255304375E0,-1.344204712E-1,7.294331360E-1,8.375532990E0,8.408311033E0
2.265309375E0,-1.998344421E-1,7.047344971E-1,8.437354431E0,8.469092886E0
2.275319792E0,-2.339634705E-1,7.348219299E-1,8.537346497E0,8.572105189E0
2.285324792E0,-1.942959595E-1,8.403524780E-1,8.753047943E0,8.795441518E0
2.295329792E0,-1.035845947E-1,1.006506958E0,9.062304840E0,9.118615851E0
2.305335792E0,-5.628295898E-2,1.153650970E0,9.353150024E0,9.424197245E0
2.315340792E0,-6.885681152E-2,1.244212646E0,9.702074432E0,9.781771550E0
2.325346792E0,-1.374142456E-1,1.276246033E0,1.003662872E1,1.011837945E1
2.335351792E0,-2.531236267E-1,1.252595215E0,1.023825943E1,1.031770432E1
2.345356792E0,-3.209326172E-1,1.204844513E0,1.037208115E1,1.044675621E1
2.355362792E0,-3.570075989E-1,1.180445251E0,1.044363235E1,1.051619523E1
2.365367792E0,-3.209326172E-1,1.134640503E0,1.053000275E1,1.059581826E1
2.375372792E0,-3.002755737E-1,1.051712952E0,1.063732956E1,1.069341132E1
2.385378792E0,-3.213816833E-1,9.243278503E-1,1.084779190E1,1.089184361E1
2.395383792E0,-3.978726196E-1,7.969427490E-1,1.112336884E1,1.115897641E1
2.405389792E0,-4.938230896E-1,6.671626282E-1,1.134640503E1,1.137672511E1
2.415394792E0,-5.504054260E-1,5.321434021E-1,1.150926636E1,1.153470133E1
2.425399792E0,-5.712121582E-1,4.337979126E-1,1.154683823E1,1.156909404E1
2.435405792E0,-5.963598633E-1,3.558100891E-1,1.146735352E1,1.148836118E1
2.445410792E0,-6.569837952E-1,3.776646423E-1,1.121557709E1,1.124114886E1
2.455415792E0,-6.047424316E-1,5.339396667E-1,1.080513062E1,1.083520432E1
2.465421792E0,-4.209246826E-1,7.044351196E-1,1.041055115E1,1.044284356E1
2.475426792E0,-2.451901245E-1,8.220904541E-1,1.014994308E1,1.018613251E1
2.485432792E0,-1.636097717E-1,9.131011963E-1,9.999505920E0,1.004244196E1
2.495437792E0,-1.185534668E-1,9.921368408E-1,9.864935760E0,9.915409623E0
2.505442792E0,-5.493576050E-2,1.069525909E0,9.779762878E0,9.838224716E0
2.515448792E0,1.228944397E-1,1.252744904E0,9.767338715E0,9.848115475E0
2.525453792E0,3.535647583E-1,1.527573395E0,9.833351440E0,9.957574457E0
2.535458792E0,4.872367859E-1,1.717528381E0,1.002465363E1,1.018238596E1
2.545464792E0,4.216731262E-1,1.671873322E0,1.042372375E1,1.056536727E1
2.555469792E0,1.399589539E-1,1.404828644E0,1.105720642E1,1.114697025E1
2.565474792E0,-3.218307495E-1,9.005273438E-1,1.172826096E1,1.176718444E1
2.575480792E0,-7.292834473E-1,2.601589966E-1,1.239437576E1,1.241853806E1
2.585485792E0,-1.132694550E0,-4.170327759E-1,1.289134232E1,1.294772644E1
2.595491792E0,-1.493893433E0,-8.774752808E-1,1.300735107E1,1.312222780E1
2.605496792E0,-1.605561218E0,-1.001118164E0,1.263836838E1,1.277921827E1
2.615501792E0,-1.465003510E0,-8.909472656E-1,1.179726746E1,1.192122233E1
2.625507792E0,-1.085692291E0,-6.218069458E-1,1.058972855E1,1.066338231E1
2.635512792E0,-7.753875732E-1,-3.507206726E-1,9.392518158E0,9.430992961E0
2.645517792E0,-6.846762085E-1,-1.978884888E-1,8.346044312E0,8.376419105E0
2.655523792E0,-5.944139099E-1,-8.921447754E-2,7.541018372E0,7.564935241E0
2.665528792E0,-5.792953491E-1,1.466949463E-2,6.997947693E0,7.021899331E0
2.675533792E0,-6.119274902E-1,1.664538574E-1,6.740183716E0,6.769951157E0
2.685539792E0,-7.569758606E-1,3.644920349E-1,6.813531189E0,6.865134679E0
2.695544792E0,-9.681866455E-1,6.087840271E-1,7.116950226E0,7.208258034E0
2.705550792E0,-1.090781708E0,9.163943481E-1,7.607180786E0,7.739430396E0
2.715555792E0,-1.103056183E0,1.282083893E0,8.260871429E0,8.432227987E0
2.725560792E0,-1.137634277E0,1.563199310E0,8.936566315E0,9.143304727E0
2.735566792E0,-1.199156342E0,1.616937561E0,9.517657928E0,9.728220570E0
2.745571792E0,-1.313069458E0,1.473535767E0,1.002151016E1,1.021401610E1
2.755576792E0,-1.435514832E0,1.259031830E0,1.044827271E1,1.062131190E1
2.765582792E0,-1.462758179E0,1.030008087E0,1.078417419E1,1.093155941E1
2.775587792E0,-1.393901367E0,7.945477295E-1,1.101020416E1,1.112649373E1
2.785593792E0,-1.264869690E0,5.816903687E-1,1.096769257E1,1.105570166E1
2.795598792E0,-1.052461395E0,4.252656555E-1,1.069181625E1,1.075190498E1
2.805603792E0,-7.762857056E-1,3.363505554E-1,1.021490799E1,1.024988275E1
2.815609792E0,-4.718188477E-1,3.568579102E-1,9.721683655E0,9.739665994E0
2.825614792E0,-2.609074402E-1,4.791535950E-1,9.221573639E0,9.237698915E0
2.835619792E0,-1.722917175E-1,5.989045715E-1,8.783434753E0,8.805515158E0
2.845625792E0,-1.243913269E-1,7.369175720E-1,8.450077972E0,8.483061856E0
2.855630792E0,-1.317260742E-2,8.898994446E-1,8.292904816E0,8.340525452E0
2.865636792E0,7.020401001E-2,1.051114197E0,8.342451782E0,8.408702123E0
2.875641792E0,9.894424438E-2,1.236279144E0,8.473579102E0,8.563861213E0
2.885646792E0,-8.981323242E-4,1.351539459E0,8.651259613E0,8.756195099E0
2.895652792E0,-1.565744019E-1,1.349593506E0,8.777447205E0,8.881975997E0
2.905657792E0,-2.068698120E-1,1.407373352E0,8.984766083E0,9.096676120E0
2.915662792E0,-2.490820312E-1,1.504072266E0,9.218130798E0,9.343351147E0
2.925668792E0,-3.062631226E-1,1.602118378E0,9.515562286E0,9.654351662E0
2.935673792E0,-3.793112183E-1,1.641935577E0,9.760602722E0,9.905008579E0
2.945678792E0,-4.852908325E-1,1.586251373E0,9.889185333E0,1.002734697E1
2.955684792E0,-5.289999390E-1,1.494641876E0,9.948312378E0,1.007386294E1
2.965689792E0,-5.013075256E-1,1.459315338E0,9.967622223E0,1.008634737E1
2.975695792E0,-3.872447205E-1,1.460063782E0,9.953401794E0,1.006737066E1
2.985700792E0,-2.872526550E-1,1.427132263E0,9.901310120E0,1.000775513E1
2.995705792E0,-2.513273621E-1,1.411414948E0,9.859247589E0,9.962932330E0
3.005711792E0,-2.197430420E-1,1.421893158E0,9.827962646E0,9.932719514E0
3.015716792E0,-1.938468933E-1,1.331630859E0,9.751322021E0,9.843733973E0
3.025721792E0,-1.719923401E-1,1.234333191E0,9.626032562E0,9.706372272E0
3.035727792E0,-1.191522217E-1,1.178948364E0,9.503886566E0,9.577472337E0
3.045732792E0,-7.993377686E-2,1.168170776E0,9.437125397E0,9.509487269E0
3.055738792E0,-5.897735596E-2,1.216220856E0,9.402397614E0,9.480915166E0
3.065743792E0,-8.382568359E-2,1.296753387E0,9.403744812E0,9.493103422E0
3.075748792E0,-1.002914429E-1,1.377585297E0,9.441316681E0,9.541816404E0
3.085754792E0,-1.224453735E-1,1.462458801E0,9.458231506E0,9.571411695E0
3.095759792E0,-1.398092651E-1,1.577419739E0,9.445358276E0,9.577191271E0
3.105764792E0,-1.329235840E-1,1.686093750E0,9.495803375E0,9.645250777E0
3.115770792E0,-1.064286804E-1,1.772164764E0,9.656269684E0,9.818117906E0
3.125775792E0,-1.529818726E-1,1.813179474E0,9.869725800E0,1.003606051E1
3.135780792E0,-2.836601257E-1,1.744771729E0,9.924062805E0,1.008026359E1
3.145786792E0,-4.237687683E-1,1.600322113E0,9.699529724E0,9.839791040E0
3.155791792E0,-4.251159668E-1,1.559606781E0,9.386380920E0,9.524560026E0
3.165796792E0,-2.636018372E-1,1.700912933E0,9.278754730E0,9.437048272E0
3.175802792E0,1.646575928E-3,1.945653992E0,9.459279327E0,9.657304881E0
3.185807792E0,1.351689148E-1,2.125430145E0,9.815688171E0,1.004407578E1
3.195813792E0,7.813751221E-2,2.056423645E0,1.015143997E1,1.035793016E1
3.205818792E0,-1.945953369E-2,1.746717682E0,1.050560349E1,1.064984065E1
3.215823792E0,-1.639091492E-1,1.374741211E0,1.084928879E1,1.093726871E1
3.225829792E0,-2.636018372E-1,1.078507233E0,1.113624207E1,1.119144991E1
3.235834792E0,-1.963916016E-1,8.387059021E-1,1.140672958E1,1.143920789E1
3.245839792E0,-1.014889526E-1,6.024971008E-1,1.151914581E1,1.153533801E1
3.255845792E0,-9.280700684E-2,4.001179504E-1,1.144310394E1,1.145047315E1
3.265850792E0,-9.999206543E-2,2.730322266E-1,1.116573074E1,1.116951602E1
3.275855792E0,-6.990463257E-2,1.948947144E-1,1.070932983E1,1.071133120E1
3.285861167E0,5.089416504E-3,1.718426514E-1,1.011626312E1,1.011772382E1
3.295866167E0,1.442999268E-1,2.154020691E-1,9.377100220E0,9.380683826E0
3.305872167E0,3.272195435E-1,3.671864319E-1,8.622669067E0,8.636684569E0
3.315877167E0,5.587879944E-1,5.532495117E-1,8.013885040E0,8.052371234E0
3.325882167E0,7.450007629E-1,7.598199463E-1,7.618557129E0,7.692513582E0
3.335888167E0,8.295748901E-1,9.131011963E-1,7.501350861E0,7.602118983E0
3.345893167E0,8.357121277E-1,9.354048157E-1,7.652985535E0,7.755100549E0
3.355898167E0,7.376660156E-1,8.409512329E-1,8.066425781E0,8.143621738E0
3.365904167E0,5.611830139E-1,7.008425903E-1,8.665030975E0,8.711421728E0
3.375909167E0,3.424877930E-1,6.391708374E-1,9.323361969E0,9.351519430E0
3.385914167E0,1.694476318E-1,6.221063232E-1,9.938881989E0,9.959774293E0
3.395920167E0,3.592529297E-2,6.548881531E-1,1.047536636E1,1.049587869E1
3.405925167E0,-7.095245361E-2,7.403604126E-1,1.095706467E1,1.098227817E1
3.415931167E0,-1.119671631E-1,8.738827515E-1,1.137619308E1,1.141025753E1
3.425936167E0,-2.176473999E-1,9.824070740E-1,1.166838547E1,1.171169132E1
3.435941167E0,-3.415896606E-1,9.894424438E-1,1.177780792E1,1.182423102E1
3.445947167E0,-4.605921936E-1,8.770262146E-1,1.172721313E1,1.176897821E1
3.455952167E0,-5.034031677E-1,7.610174561E-1,1.146870071E1,1.150494061E1
3.465957167E0,-4.543052673E-1,7.574249268E-1,1.104118973E1,1.107645956E1
3.475963167E0,-3.200344849E-1,8.512797546E-1,1.051248917E1,1.055175472E1
3.485968167E0,-2.050735474E-1,9.313632202E-1,1.000953506E1,1.005486374E1
3.495973167E0,-1.600172424E-1,8.976832581E-1,9.624086609E0,9.667185930E0
3.505979167E0,-1.606159973E-1,8.234376526E-1,9.405092010E0,9.442436274E0
3.515984167E0,-1.624122620E-1,8.002359009E-1,9.345815277E0,9.381418786E0
3.525990167E0,-1.920506287E-1,8.402027893E-1,9.352700958E0,9.392328752E0
3.535995167E0,-1.954934692E-1,9.301657104E-1,9.306596832E0,9.355007779E0
3.546000167E0,-1.453477478E-1,1.034947815E0,9.207203522E0,9.266328272E0
3.556006167E0,-6.107299805E-2,1.184187469E0,9.073830872E0,9.150980087E0
3.566011167E0,-6.885681152E-3,1.336420898E0,8.953181763E0,9.052377141E0
3.576016167E0,-1.257385254E-2,1.434916077E0,8.847202148E0,8.962819205E0
3.586022167E0,-4.715194702E-2,1.472787323E0,8.773405609E0,8.896289776E0
3.596027167E0,-1.019380188E-1,1.452729034E0,8.793613586E0,8.913386164E0
3.606032167E0,-1.737886047E-1,1.428180084E0,8.901688843E0,9.017203840E0
3.616038167E0,-2.240840149E-1,1.443148956E0,9.076525269E0,9.193269468E0
3.626043167E0,-2.294728088E-1,1.492845612E0,9.309740295E0,9.431463840E0
3.636049167E0,-2.773731995E-1,1.558558960E0,9.507479095E0,9.638371267E0
3.646054167E0,-3.204835510E-1,1.681303711E0,9.661508789E0,9.811943944E0
3.656059167E0,-2.897973633E-1,1.764979706E0,9.818831635E0,9.980410339E0
3.666065167E0,-2.644999695E-1,1.754202118E0,9.944121094E0,1.010112517E1
3.676070167E0,-2.136058044E-1,1.714983673E0,1.006327332E1,1.021059578E1
3.686075167E0,-2.065704346E-1,1.646875305E0,1.008303223E1,1.021872832E1
3.696081167E0,-2.116598511E-1,1.575174408E0,1.001118164E1,1.013655425E1
3.706086167E0,-1.570234680E-1,1.502126312E0,9.901459808E0,1.001598453E1
3.716091167E0,-9.714797974E-2,1.459614716E0,9.787397003E0,9.896113022E0
3.726097167E0,-4.760101318E-2,1.451232147E0,9.730664978E0,9.838403403E0
3.736102167E0,-6.661148071E-2,1.455872498E0,9.753417664E0,9.861701574E0
3.746108167E0,-1.269360352E-1,1.477577362E0,9.864935760E0,9.975785943E0
3.756113167E0,-2.065704346E-1,1.502874756E0,1.004486160E1,1.015876708E1
3.766118167E0,-2.859054565E-1,1.449585571E0,1.021071671E1,1.031706237E1
3.776124167E0,-3.309617615E-1,1.362167358E0,1.027343628E1,1.036863195E1
3.786129167E0,-3.037184143E-1,1.273851013E0,1.025846741E1,1.034171624E1
3.796134167E0,-2.965333557E-1,1.186582489E0,1.019814285E1,1.027122328E1
3.806140167E0,-2.769241333E-1,1.145418091E0,1.014934433E1,1.021752709E1
3.816145167E0,-2.297721863E-1,1.199455719E0,1.010189301E1,1.017544749E1
3.826150167E0,-2.101629639E-1,1.248703308E0,9.929750977E0,1.001016398E1
3.836156167E0,-2.317181396E-1,1.198258209E0,9.679022369E0,9.755664511E0
3.846161167E0,-2.351609802E-1,1.193617859E0,9.503736877E0,9.581285870E0
3.856166167E0,-2.487826538E-1,1.197060699E0,9.620194702E0,9.697576668E0
3.866172167E0,-2.330653381E-1,1.149609375E0,9.989626465E0,1.005825820E1
3.876177167E0,-2.067201233E-1,1.087638245E0,1.052027298E1,1.057836631E1
3.886183167E0,-1.694476318E-1,9.671388245E-1,1.120644608E1,1.124937792E1
3.896188167E0,-2.338137817E-1,6.379733276E-1,1.186268143E1,1.188212479E1
3.906193167E0,-4.638853455E-1,1.592687988E-1,1.228974335E1,1.229952632E1
3.916199167E0,-7.252418518E-1,-2.993774414E-1,1.228659988E1,1.231162618E1
3.926204167E0,-8.397537231E-1,-5.608836365E-1,1.182316360E1,1.186621146E1
3.936209167E0,-6.249504089E-1,-4.764591980E-1,1.102547241E1,1.105344373E1
3.946215167E0,-1.724414062E-1,-1.106199646E-1,9.966275024E0,9.968380544E0
3.956220167E0,1.535806274E-1,2.631527710E-1,8.823401642E0,8.828660879E0
3.966225167E0,2.755769348E-1,5.053491211E-1,7.832761688E0,7.853882864E0
3.976231167E0,3.023712158E-1,6.360273743E-1,7.162455597E0,7.196994467E0
3.986236167E0,2.987786865E-1,7.387138367E-1,6.775061188E0,6.821760838E0
3.996242167E0,2.612068176E-1,8.551716614E-1,6.652166748E0,6.711994489E0
4.006247167E0,2.353106689E-1,1.022224274E0,6.887028351E0,6.966453408E0
4.016252167E0,2.037263489E-1,1.163680115E0,7.455546112E0,7.548564345E0
4.026258167E0,6.227050781E-2,1.238524475E0,8.330776062E0,8.422567915E0
4.036263167E0,-2.270777893E-1,1.130598907E0,9.445657654E0,9.515790389E0
4.046268167E0,-4.936734009E-1,8.467890930E-1,1.056517960E1,1.061055065E1
4.056274167E0,-7.306306458E-1,5.230123901E-1,1.155327484E1,1.158816304E1
4.066279167E0,-9.889933777E-1,2.409988403E-1,1.232372269E1,1.236569162E1
4.076284167E0,-1.182391205E0,1.332229614E-2,1.282443146E1,1.287883025E1
4.086290167E0,-1.237925720E0,-1.318757629E-1,1.300765045E1,1.306708925E1
4.096295167E0,-1.158890076E0,-1.191522217E-1,1.286933807E1,1.292196138E1
4.106301167E0,-9.654922485E-1,1.930984497E-2,1.239736954E1,1.243492339E1
4.116306167E0,-6.686595154E-1,2.305206299E-1,1.162273041E1,1.164423065E1
4.126311167E0,-3.382965088E-1,4.079017639E-1,1.068627777E1,1.069940938E1
4.136317167E0,-1.492396545E-1,4.920268250E-1,9.684560852E0,9.698199924E0
4.146322167E0,-2.739303589E-2,5.059478760E-1,8.827443237E0,8.841973068E0
4.156327167E0,7.738906860E-2,4.734654236E-1,8.177943878E0,8.192003702E0
4.166333167E0,1.094224548E-1,4.813989258E-1,7.786208496E0,7.801843432E0
4.176338167E0,1.014889526E-1,5.267546082E-1,7.636669464E0,7.655487635E0
4.186343167E0,1.332229614E-2,5.586383057E-1,7.690557404E0,7.710831824E0
4.196349167E0,-1.106199646E-1,6.146218872E-1,7.897277527E0,7.921930900E0
4.206354167E0,-1.299298096E-1,7.870632935E-1,8.224497070E0,8.263092789E0
4.216359167E0,-1.121168518E-1,9.792636108E-1,8.584049377E0,8.640453178E0
4.226365167E0,-1.155596924E-1,1.101559296E0,8.942853241E0,9.011182554E0
4.236370167E0,-1.531315613E-1,1.170865173E0,9.305848389E0,9.380468472E0
4.246376167E0,-2.222877502E-1,1.187779999E0,9.616602173E0,9.692227325E0
4.256381167E0,-2.839595032E-1,1.181493073E0,9.861941986E0,9.936521455E0
4.266386167E0,-3.451821899E-1,1.134490814E0,1.004246658E1,1.011223789E1
4.276392167E0,-3.153941345E-1,1.081950073E0,1.017314484E1,1.023537812E1
4.286393417E0,-2.568658447E-1,1.010099487E0,1.026670029E1,1.031946781E1
4.296398417E0,-2.574645996E-1,9.135502625E-1,1.028002258E1,1.032374575E1
4.306404417E0,-2.532733154E-1,8.002359009E-1,1.019215530E1,1.022665902E1
4.316409417E0,-2.212399292E-1,7.167095947E-1,1.006072861E1,1.008865104E1
4.326414417E0,-1.676513672E-1,6.978488159E-1,9.879904633E0,9.905938396E0
4.336420417E0,-5.493576050E-2,7.339237976E-1,9.715696106E0,9.743531849E0
4.346425417E0,7.110214233E-2,7.723937988E-1,9.616602173E0,9.647833179E0
4.356430417E0,1.119671631E-1,8.324189758E-1,9.526938629E0,9.563891344E0
4.366436417E0,1.267863464E-1,9.425898743E-1,9.387428741E0,9.435484557E0
4.376441417E0,1.660047913E-1,1.055754547E0,9.320368195E0,9.381441176E0
4.386447417E0,1.911524963E-1,1.137783966E0,9.284592590E0,9.356000812E0
4.396452417E0,1.836680603E-1,1.209933929E0,9.301956482E0,9.382114285E0
4.406457417E0,1.020877075E-1,1.315913544E0,9.324409790E0,9.417359943E0
4.416463417E0,2.335144043E-2,1.422641602E0,9.375753021E0,9.483100713E0
4.426468417E0,-2.859054565E-2,1.516496429E0,9.459429016E0,9.580259712E0
4.436473417E0,-7.469467163E-2,1.596579895E0,9.585017853E0,9.717366613E0
4.446479417E0,-1.252894592E-1,1.634151764E0,9.779313812E0,9.915701088E0
4.456484417E0,-1.660047913E-1,1.622476044E0,1.000534378E1,1.013740057E1
4.466490417E0,-1.872605896E-1,1.523082733E0,1.017464172E1,1.028971242E1
4.476495417E0,-1.523831177E-1,1.352287903E0,1.031759445E1,1.040695241E1
4.486500417E0,-1.457968140E-1,1.192719727E0,1.024574387E1,1.031596357E1
4.496506417E0,-1.904040527E-1,1.001866608E0,9.880054321E0,9.932545685E0
4.506511417E0,-2.231858826E-1,8.631051636E-1,9.352251892E0,9.394646237E0
4.516516417E0,-1.419049072E-1,8.991801453E-1,8.907227325E0,8.953622762E0
4.526522417E0,1.140628052E-1,1.032253418E0,8.961863708E0,9.021837871E0
4.536527417E0,4.176315308E-1,1.215322723E0,9.589658203E0,9.675379572E0
4.546532417E0,5.035528564E-1,1.299447784E0,1.055784485E1,1.064942336E1
4.556538417E0,3.180885315E-1,1.113684082E0,1.168679718E1,1.174404959E1
4.566543417E0,1.082249451E-1,7.041357422E-1,1.277982422E1,1.279966511E1
4.576548417E0,-1.425036621E-1,2.110610962E-1,1.344474152E1,1.344715318E1
4.586554417E0,-4.466711426E-1,-2.384541321E-1,1.349219284E1,1.350169038E1
4.596559417E0,-6.262976074E-1,-5.390290833E-1,1.302052368E1,1.304671752E1
4.606565417E0,-5.307962036E-1,-5.239105225E-1,1.216295700E1,1.218580116E1
4.616570417E0,-5.179229736E-2,-1.299298096E-1,1.101589233E1,1.101678030E1
4.626575417E0,4.125421143E-1,3.227288818E-1,9.788893890E0,9.802896946E0
4.636581417E0,7.747888184E-1,6.538403320E-1,8.757388916E0,8.815875766E0
4.646586417E0,1.092428284E0,8.228388977E-1,8.128696289E0,8.242946486E0
4.656591417E0,1.262324982E0,8.038284302E-1,7.936046906E0,8.075917594E0
4.666597417E0,1.125509491E0,6.899153137E-1,8.246351624E0,8.351351379E0
4.676602417E0,7.424560547E-1,4.532574463E-1,8.861422577E0,8.904015577E0
4.686607417E0,4.209246826E-1,2.168989563E-1,9.463320923E0,9.475160454E0
4.696613417E0,2.818638611E-1,1.190025330E-1,9.900561676E0,9.905287999E0
4.706618417E0,2.621049500E-1,2.077679443E-1,1.013377670E1,1.013929469E1
4.716624417E0,3.201841736E-1,3.775149536E-1,1.018047958E1,1.019250705E1
4.726629417E0,4.046086121E-1,6.117778015E-1,1.010458740E1,1.013117302E1
4.736634417E0,5.334906006E-1,8.629554749E-1,1.003123993E1,1.008241434E1
4.746640417E0,6.182144165E-1,1.079405365E0,1.002345612E1,1.010034542E1
4.756645417E0,6.256988525E-1,1.190175018E0,1.010967682E1,1.019870487E1
4.766650417E0,6.077362061E-1,1.134640503E0,1.029394363E1,1.037410372E1
4.776656417E0,5.343887329E-1,9.345066833E-1,1.047671356E1,1.053187548E1
4.786661417E0,4.526586914E-1,6.227050781E-1,1.058239380E1,1.061035909E1
4.796666417E0,3.844006348E-1,3.082090759E-1,1.058628571E1,1.059774512E1
4.806672417E0,3.297642517E-1,4.266128540E-2,1.042477158E1,1.043007320E1
4.816677417E0,3.221301270E-1,-6.870712280E-2,1.019470001E1,1.020001945E1
4.826682417E0,3.841012573E-1,-2.574645996E-2,9.911638641E0,9.919111715E0
4.836688417E0,4.375401306E-1,1.022373962E-1,9.551786957E0,9.562349498E0
4.846693417E0,4.981640625E-1,2.766247559E-1,9.150920563E0,9.168644166E0
4.856699417E0,6.182144165E-1,4.673281860E-1,8.798104248E0,8.832169782E0
4.866704417E0,7.491920471E-1,6.191125488E-1,8.553213501E0,8.608254775E0
4.876709417E0,7.800279236E-1,7.030879211E-1,8.416248322E0,8.481510007E0
4.886715417E0,7.503895569E-1,7.177574158E-1,8.382867737E0,8.446936231E0
4.896720417E0,6.988966370E-1,7.152127075E-1,8.427474976E0,8.486596502E0
4.906725417E0,6.375242615E-1,7.041357422E-1,8.512647858E0,8.565478263E0
4.916731417E0,5.737568665E-1,7.469467163E-1,8.611592102E0,8.662946662E0
4.926736417E0,4.876858521E-1,8.181985474E-1,8.701105957E0,8.753086954E0
4.936741417E0,3.695814514E-1,9.169931030E-1,8.773255920E0,8.828787360E0
4.946747417E0,2.999761963E-1,1.007255402E0,8.816066895E0,8.878489998E0
4.956752417E0,2.998265076E-1,1.083596649E0,8.918004913E0,8.988597736E0
4.966757417E0,3.333567810E-1,1.195114746E0,9.046437836E0,9.131126081E0
4.976763417E0,3.499722290E-1,1.297651520E0,9.205556946E0,9.303153160E0
4.986768417E0,2.845582581E-1,1.354383545E0,9.282347260E0,9.384950657E0
4.996774417E0,2.201921082E-1,1.351539459E0,9.327553253E0,9.427533780E0
5.006779417E0,1.968406677E-1,1.262624359E0,9.366023254E0,9.452796312E0
5.016784417E0,2.049238586E-1,1.118474121E0,9.414223022E0,9.482645900E0
5.026790417E0,2.118095398E-1,9.681866455E-1,9.535021820E0,9.586390863E0
5.036795417E0,2.110610962E-1,8.551716614E-1,9.696535950E0,9.736461101E0
5.046800417E0,2.293231201E-1,7.476951599E-1,9.945767670E0,9.976468899E0
5.056806417E0,1.850152588E-1,6.209088135E-1,1.020622604E1,1.022676921E1
5.066811417E0,1.442999268E-1,5.430706787E-1,1.039169037E1,1.040687162E1
5.076816417E0,1.766326904E-1,5.152285767E-1,1.055290512E1,1.056695160E1
5.086822417E0,2.577639771E-1,5.691165161E-1,1.063762894E1,1.065596008E1
5.096827417E0,3.460803223E-1,7.179071045E-1,1.059616516E1,1.062609422E1
5.106832417E0,5.025050354E-1,8.759783936E-1,1.040995239E1,1.045882203E1
5.116838417E0,6.893165588E-1,9.499246216E-1,1.019484970E1,1.026218663E1
5.126843417E0,7.960446167E-1,9.901908875E-1,1.004052063E1,1.012058395E1
5.136849417E0,8.399034119E-1,1.034947815E0,9.974507904E0,1.006316862E1
5.146854417E0,8.187973022E-1,1.101858673E0,1.000938538E1,1.010308454E1
5.156859417E0,7.946974182E-1,1.138682098E0,1.008782227E1,1.018294157E1
5.166865417E0,7.598199463E-1,1.179098053E0,1.009994705E1,1.019688820E1
5.176870417E0,7.253915405E-1,1.227597198E0,1.011416748E1,1.021418482E1
5.186875417E0,7.381150818E-1,1.252744904E0,1.021984772E1,1.032276470E1
5.196881417E0,7.488926697E-1,1.193168793E0,1.050844757E1,1.060245077E1
5.206886417E0,7.060816956E-1,1.024170227E0,1.087638245E1,1.094729058E1
5.216891417E0,5.580395508E-1,7.339237976E-1,1.122096588E1,1.125878002E1
5.226897417E0,3.823049927E-1,3.592529297E-1,1.154234756E1,1.155426359E1
5.236902417E0,2.731819153E-1,-1.077758789E-2,1.185175415E1,1.185490704E1
5.246907417E0,1.561253357E-1,-3.835025024E-1,1.213616272E1,1.214322424E1
5.256913417E0,1.556762695E-2,-7.030879211E-1,1.212583420E1,1.214621052E1
5.266918417E0,-1.187031555E-1,-8.512797546E-1,1.172182434E1,1.175329458E1
5.276924417E0,-1.110690308E-1,-7.481442261E-1,1.099763031E1,1.102360778E1
5.286933000E0,1.034349060E-1,-4.758604431E-1,1.008527756E1,1.009702755E1
5.296938000E0,3.650907898E-1,-1.785786438E-1,9.174272003E0,9.183270028E0
5.306944000E0,5.239105225E-1,5.583389282E-2,8.324938202E0,8.341594316E0
5.316949000E0,5.776487732E-1,2.173480225E-1,7.610623627E0,7.635608048E0
5.326954000E0,5.550457764E-1,3.538641357E-1,7.056026917E0,7.086664341E0
5.336960000E0,5.147795105E-1,5.023553467E-1,6.723568268E0,6.761932349E0
5.346965000E0,4.712200928E-1,6.918612671E-1,6.635401611E0,6.687994836E0
5.356970000E0,4.323010254E-1,8.958869934E-1,6.828050995E0,6.900128844E0
5.366976000E0,3.664379883E-1,1.138382721E0,7.301815796E0,7.399101698E0
5.376981000E0,2.601589966E-1,1.363215179E0,8.018375702E0,8.137590996E0
5.386987000E0,8.831634521E-2,1.405726776E0,8.863967285E0,8.975175964E0
5.396992000E0,-1.119671631E-1,1.254541168E0,9.815089417E0,9.895574286E0
5.406997000E0,-2.490820312E-1,1.054706726E0,1.074480606E1,1.079931967E1
5.417003000E0,-3.122506714E-1,8.577163696E-1,1.154968231E1,1.158569546E1
5.427008000E0,-3.225791931E-1,6.483018494E-1,1.215098190E1,1.217253933E1
5.437013000E0,-2.733316040E-1,4.381388855E-1,1.246323257E1,1.247392649E1
5.447019000E0,-1.969903564E-1,2.167492676E-1,1.251562363E1,1.251905029E1
5.457024000E0,-1.434017944E-1,-1.871109009E-2,1.227417572E1,1.227502765E1
5.467029000E0,-1.577719116E-1,-2.421963501E-1,1.169877228E1,1.170234267E1
5.477035000E0,-1.347198486E-1,-3.447331238E-1,1.093715607E1,1.094341689E1
5.487040000E0,-5.987548828E-3,-2.577639771E-1,1.009126511E1,1.009455841E1
5.497045000E0,1.839674377E-1,-2.395019531E-2,9.329050140E0,9.330894606E0
5.507051000E0,3.501219177E-1,2.779719543E-1,8.718469849E0,8.729923841E0
5.517056000E0,4.279600525E-1,5.298980713E-1,8.281827850E0,8.309790269E0
5.527061000E0,4.459226990E-1,7.258406067E-1,8.005652161E0,8.050848288E0
5.537067000E0,4.507127380E-1,9.042695618E-1,7.934400330E0,7.998471979E0
5.547072000E0,3.896397400E-1,1.066681824E0,8.026608582E0,8.106545168E0
5.557078000E0,3.137475586E-1,1.197958832E0,8.262817383E0,8.355099879E0
5.567083000E0,2.435435486E-1,1.290017395E0,8.625812531E0,8.725141841E0
5.577088000E0,1.676513672E-1,1.356329498E0,9.063202972E0,9.165663359E0
5.587094000E0,8.532257080E-2,1.394949188E0,9.437574463E0,9.540491335E0
5.597099000E0,-5.837860107E-3,1.399290161E0,9.683962097E0,9.784537237E0
5.607104000E0,-4.236190796E-2,1.343156891E0,9.826914825E0,9.918372848E0
5.617110000E0,-4.864883423E-2,1.248852997E0,9.884694672E0,9.963392458E0
5.627115000E0,-4.475692749E-2,1.150806885E0,9.914931793E0,9.981594669E0
5.637120000E0,2.035766602E-2,1.066232758E0,9.943522339E0,1.000054515E1
5.647126000E0,1.230441284E-1,9.836045837E-1,9.958191833E0,1.000740738E1
5.657131000E0,2.504292297E-1,9.190887451E-1,9.979297943E0,1.002466091E1
5.667136000E0,3.577560425E-1,8.301736450E-1,1.000998413E1,1.005071938E1
5.677142000E0,4.245172119E-1,7.433541870E-1,9.986632690E0,1.002325410E1
5.687147000E0,5.072950745E-1,6.718029785E-1,9.967173157E0,1.000266006E1
5.697153000E0,5.785469055E-1,5.944139099E-1,9.939630432E0,9.974181548E0
5.707158000E0,6.358776855E-1,5.405259705E-1,9.903555450E0,9.938657823E0
5.717163000E0,6.483018494E-1,5.170248413E-1,9.867929535E0,9.902708886E0
5.727169000E0,6.161187744E-1,4.959187317E-1,9.802515564E0,9.834370804E0
5.737174000E0,5.867797852E-1,5.242098999E-1,9.701026611E0,9.732883635E0
5.747179000E0,5.975573730E-1,6.111790466E-1,9.645342407E0,9.683142300E0
5.757185000E0,5.710624695E-1,7.601193237E-1,9.602232056E0,9.649184120E0
5.767190000E0,5.095404053E-1,9.306147766E-1,9.608668671E0,9.667067234E0
5.777195000E0,4.155358887E-1,1.141077118E0,9.619745636E0,9.696093706E0
5.787201000E0,3.629951477E-1,1.336420898E0,9.623936920E0,9.723062693E0
5.797206000E0,3.219804382E-1,1.480870514E0,9.511820068E0,9.631789548E0
5.807211000E0,2.760260010E-1,1.520238647E0,9.243128815E0,9.371379097E0
5.817217000E0,2.392025757E-1,1.543739777E0,8.930279388E0,9.065883317E0
5.827222000E0,2.851570129E-1,1.605112152E0,8.798852692E0,8.948603703E0
5.837227000E0,4.939727783E-1,1.743873596E0,9.081015930E0,9.260127135E0
5.847233000E0,6.721023560E-1,1.852846985E0,9.679471436E0,9.878103603E0
5.857238000E0,6.099815369E-1,1.729353790E0,1.040725800E1,1.056758066E1
5.867244000E0,4.203259277E-1,1.414259033E0,1.114237930E1,1.123963607E1
5.877249000E0,1.556762695E-1,1.018781433E0,1.165341660E1,1.169890034E1
5.887254000E0,-1.568737793E-1,6.360273743E-1,1.190399551E1,1.192200694E1
5.897260000E0,-4.318519592E-1,3.227288818E-1,1.196087723E1,1.197302109E1
5.907265000E0,-4.468208313E-1,1.547781372E-1,1.197479828E1,1.198413113E1
5.917270000E0,-2.231858826E-1,1.905537415E-1,1.191222839E1,1.191584273E1
5.927276000E0,6.182144165E-2,3.543132019E-1,1.160970749E1,1.161527734E1
5.937281000E0,3.486250305E-1,4.873864746E-1,1.110286148E1,1.111902055E1
5.947286000E0,5.409750366E-1,4.959187317E-1,1.049901718E1,1.052463544E1
5.957292000E0,6.291416931E-1,4.281097412E-1,9.892777863E0,9.922003379E0
5.967297000E0,6.807843018E-1,3.635939026E-1,9.322164459E0,9.354058905E0
5.977302000E0,6.483018494E-1,3.264710999E-1,8.780141602E0,8.810094506E0
5.987308000E0,6.110293579E-1,3.201841736E-1,8.280929718E0,8.309613215E0
5.997313000E0,6.734495544E-1,3.713777161E-1,7.912096710E0,7.949385515E0
6.007318000E0,7.948471069E-1,4.773573303E-1,7.673343201E0,7.729155699E0
6.017324000E0,9.602531433E-1,5.749543762E-1,7.632627869E0,7.714250891E0
6.027329000E0,1.066083069E0,6.771917725E-1,7.785609741E0,7.887384918E0
6.037335000E0,1.080303497E0,7.647596741E-1,8.179141388E0,8.285545658E0
6.047340000E0,1.005459137E0,8.210426331E-1,8.776848450E0,8.872323697E0
6.057345000E0,8.117619324E-1,8.370593262E-1,9.499994659E0,9.571286449E0
6.067351000E0,5.989045715E-1,8.345146179E-1,1.023661285E1,1.028801944E1
6.077356000E0,4.125421143E-1,8.165519714E-1,1.086111420E1,1.089957567E1
6.087361000E0,3.200344849E-1,7.966433716E-1,1.136346954E1,1.139585463E1
6.097367000E0,3.053649902E-1,7.387138367E-1,1.165266815E1,1.168005227E1
6.107372000E0,2.568658447E-1,6.011499023E-1,1.171164551E1,1.172987646E1
6.117377000E0,1.850152588E-1,3.839515686E-1,1.158979889E1,1.159763285E1
6.127383000E0,1.204994202E-1,1.475930786E-1,1.135793106E1,1.135952912E1
6.137388000E0,6.721023560E-2,2.649490356E-2,1.099673218E1,1.099696948E1
6.147393000E0,8.652008057E-2,9.295669556E-2,1.051518356E1,1.051595036E1
6.157399000E0,2.043251038E-1,2.969824219E-1,1.000145187E1,1.000794619E1
6.167404000E0,3.490740967E-1,5.409750366E-1,9.492809601E0,9.514617219E0
6.177409000E0,4.778063965E-1,7.674540710E-1,9.052874451E0,9.097901985E0
6.187415000E0,5.043013000E-1,9.659413147E-1,8.688681793E0,8.756743329E0
6.197420000E0,4.793032837E-1,1.138532410E0,8.435707855E0,8.525676202E0
6.207426000E0,4.816983032E-1,1.242416382E0,8.321345673E0,8.427361718E0
6.217431000E0,4.463717651E-1,1.298699341E0,8.255332947E0,8.368774689E0
6.227436000E0,4.270619202E-1,1.320553894E0,8.278834076E0,8.394363474E0
6.237442000E0,3.971241760E-1,1.315314789E0,8.386909332E0,8.498706299E0
6.247447000E0,3.817062378E-1,1.287622375E0,8.538993073E0,8.643961692E0
6.257452000E0,3.469784546E-1,1.263223114E0,8.736282806E0,8.833955171E0
6.267458000E0,2.959346008E-1,1.240021362E0,8.952583008E0,9.042896261E0
6.277463000E0,2.737806702E-1,1.221459961E0,9.166787567E0,9.251860061E0
6.287469375E0,3.112028503E-1,1.204395447E0,9.335486755E0,9.418000242E0
6.297475375E0,3.935316467E-1,1.186133423E0,9.478738861E0,9.560767231E0
6.307480375E0,4.583468628E-1,1.199306030E0,9.666298828E0,9.751192226E0
6.317485375E0,4.644841003E-1,1.165177002E0,9.888736267E0,9.967973108E0
6.327491375E0,5.077441406E-1,1.078058167E0,9.970915375E0,1.004187069E1
6.337496375E0,6.262976074E-1,1.052162018E0,1.005249573E1,1.012679436E1
6.347501375E0,6.578819275E-1,1.023870850E0,1.013213013E1,1.020495865E1
6.357507375E0,5.966592407E-1,8.753796387E-1,1.011641281E1,1.017173043E1
6.367512375E0,5.054988098E-1,6.245013428E-1,1.012898666E1,1.016080222E1
6.377517375E0,4.364923096E-1,4.525090027E-1,1.019260437E1,1.021197698E1
6.387523375E0,3.978726196E-1,3.703298950E-1,1.025158173E1,1.026598143E1
6.397528375E0,3.933819580E-1,3.881428528E-1,1.030172745E1,1.031653976E1
6.407534375E0,4.333488464E-1,4.872367859E-1,1.031325348E1,1.033384673E1
6.417539375E0,4.381388855E-1,6.270460510E-1,1.031040939E1,1.033874723E1
6.427544375E0,4.270619202E-1,8.035290527E-1,1.025517426E1,1.029546696E1
6.437550375E0,3.608995056E-1,8.843609619E-1,1.021550674E1,1.026006437E1
6.447555375E0,2.758763123E-1,9.286688232E-1,1.014709900E1,1.019324049E1
6.457560375E0,2.131567383E-1,1.024768982E0,1.004650818E1,1.010088679E1
6.467566375E0,1.788780212E-1,1.115031281E0,9.865235138E0,9.929660439E0
6.477571375E0,1.935475159E-1,1.122216339E0,9.665849762E0,9.732701669E0
6.487576375E0,2.806663513E-1,1.081051941E0,9.511670380E0,9.577020430E0
6.497582375E0,4.423301697E-1,9.765692139E-1,9.437873840E0,9.498568631E0
6.507587375E0,6.279441833E-1,7.604187012E-1,9.634564819E0,9.684905253E0
6.517592375E0,7.482939148E-1,4.581971741E-1,1.008782227E1,1.012590966E1
6.527598375E0,7.304809570E-1,1.375639343E-1,1.078282700E1,1.080841729E1
6.537603375E0,5.572911072E-1,-1.163081360E-1,1.162138321E1,1.163531902E1
6.547608375E0,3.498225403E-1,-2.721340942E-1,1.232536926E1,1.233333532E1
6.557614375E0,1.839674377E-1,-3.568579102E-1,1.274524612E1,1.275156815E1
6.567619375E0,2.395019531E-3,-3.817062378E-1,1.273791138E1,1.274362945E1
6.577625375E0,-8.472381592E-2,-3.662882996E-1,1.218810471E1,1.219390182E1
6.587630375E0,2.619552612E-2,-1.847158813E-1,1.115360596E1,1.115516616E1
6.597635375E0,3.103047180E-1,1.344204712E-1,9.921069031E0,9.926830743E0
6.607641375E0,5.168751526E-1,3.459306335E-1,8.753197632E0,8.775266190E0
6.617646375E0,5.105882263E-1,4.664300537E-1,7.809709625E0,7.840269240E0
6.627651375E0,4.376898193E-1,5.535488892E-1,7.209607544E0,7.244061684E0
6.637657375E0,3.541635132E-1,5.999523926E-1,6.996450806E0,7.031052449E0
6.647662375E0,2.752775574E-1,6.559359741E-1,7.121440887E0,7.156881307E0
6.657667375E0,1.582209778E-1,7.668553162E-1,7.551496582E0,7.591982717E0
6.667673375E0,8.472381592E-2,8.786727905E-1,8.247249756E0,8.294357873E0
6.677678375E0,1.059796143E-1,9.102571106E-1,9.085356903E0,9.131457153E0
6.687683375E0,6.002517700E-2,8.119116211E-1,9.869276733E0,9.902798935E0
6.697689375E0,-8.607101440E-2,6.131250000E-1,1.046234344E1,1.048064697E1
6.707694375E0,-2.198927307E-1,3.802093506E-1,1.089404572E1,1.090289613E1
6.717699375E0,-3.611988831E-1,1.365161133E-1,1.114686996E1,1.115355599E1
6.727705375E0,-3.779640198E-1,-6.616241455E-2,1.118144806E1,1.118802999E1
6.737710375E0,-2.598596191E-1,-2.200424194E-1,1.099673218E1,1.100200274E1
6.747716375E0,-3.921844482E-2,-3.216810608E-1,1.057730438E1,1.058226747E1
6.757721375E0,2.100132751E-1,-3.704795837E-1,1.003034180E1,1.003937833E1
6.767726375E0,3.885919189E-1,-4.173321533E-1,9.502539368E0,9.519633619E0
6.777732375E0,4.558021545E-1,-4.568499756E-1,9.062454529E0,9.085403106E0
6.787737375E0,4.550537109E-1,-4.308041382E-1,8.711135101E0,8.733644190E0
6.797742375E0,4.390370178E-1,-3.001258850E-1,8.458161163E0,8.474863970E0
6.807748375E0,4.064048767E-1,-1.011895752E-1,8.337062988E0,8.347575907E0
6.817753375E0,3.531156921E-1,1.046324158E-1,8.345744934E0,8.353867197E0
6.827758375E0,2.297721863E-1,3.100053406E-1,8.486452332E0,8.495220524E0
6.837764375E0,6.197113037E-2,5.038522339E-1,8.712631989E0,8.727408760E0
6.847769375E0,-4.520599365E-2,6.800358582E-1,8.951235809E0,8.977144026E0
6.857774375E0,-8.397537231E-2,8.518785095E-1,9.216035156E0,9.255703801E0
6.867780375E0,-9.744735718E-2,1.001267853E0,9.431437225E0,9.484937608E0
6.877785375E0,-1.276844788E-1,1.104702759E0,9.541009369E0,9.605598955E0
6.887790375E0,-1.077758789E-1,1.135838013E0,9.636510773E0,9.703817986E0
6.897796375E0,-9.475296021E-2,1.088536377E0,9.745184784E0,9.806248826E0
6.907801375E0,-1.468446350E-1,1.002914429E0,9.879754944E0,9.931614091E0
6.917807375E0,-2.124082947E-1,9.166937256E-1,1.000878662E1,1.005292267E1
6.927812375E0,-2.782713318E-1,8.801696777E-1,1.012479538E1,1.016678981E1
6.937817375E0,-3.367996216E-1,8.738827515E-1,1.021191422E1,1.025476947E1
6.947823375E0,-4.085005188E-1,9.386979675E-1,1.018586838E1,1.023718424E1
6.957828375E0,-4.460723877E-1,1.067729645E0,1.013272888E1,1.019858920E1
6.967833375E0,-4.523593140E-1,1.257235565E0,1.006641678E1,1.015470418E1
6.977839375E0,-4.098477173E-1,1.493294678E0,9.975705414E0,1.009517720E1
6.987844375E0,-3.701802063E-1,1.712888031E0,9.852960663E0,1.000758975E1
6.997849375E0,-3.370989990E-1,1.879790955E0,9.780661011E0,9.965369013E0
7.007855375E0,-3.140469360E-1,1.916913757E0,9.770631866E0,9.961848769E0
7.017860375E0,-2.784210205E-1,1.921105042E0,9.819879456E0,1.000990486E1
7.027865375E0,-2.613565063E-1,1.891616364E0,9.890981598E0,1.007363076E1
7.037871375E0,-1.844165039E-1,1.813628540E0,9.954299927E0,1.011984906E1
7.047876375E0,-1.856140137E-1,1.651216278E0,9.958491211E0,1.009616338E1
7.057882375E0,-2.207908630E-1,1.388961639E0,9.907597046E0,1.000691972E1
7.067887375E0,-2.529739380E-1,1.106648712E0,9.902058563E0,9.966916824E0
7.077892375E0,-3.022215271E-1,8.837622070E-1,9.959838409E0,1.000353711E1
7.087898375E0,-3.394940186E-1,7.617658997E-1,1.006970993E1,1.010418733E1
7.097903375E0,-2.736309814E-1,7.646099854E-1,1.024634262E1,1.027847457E1
7.107908375E0,-1.483415222E-1,8.806187439E-1,1.049213150E1,1.053006733E1
7.117914375E0,-2.859054565E-2,1.052461395E0,1.073717194E1,1.078866783E1
7.127919375E0,5.553451538E-2,1.175655212E0,1.085946762E1,1.092306213E1
7.137924375E0,8.891510010E-2,1.142574005E0,1.085153412E1,1.091188224E1
7.147930375E0,1.508862305E-1,9.999206543E-1,1.074061478E1,1.078811447E1
7.157935375E0,3.614982605E-1,8.638536072E-1,1.072968750E1,1.077047436E1
7.167940375E0,6.923103333E-1,7.683522034E-1,1.095526840E1,1.100397948E1
7.177946375E0,8.457412720E-1,5.650749207E-1,1.147798141E1,1.152296166E1
7.187951375E0,8.084687805E-1,1.420545959E-1,1.205862396E1,1.208653024E1
7.197956375E0,6.327342224E-1,-3.510200500E-1,1.253134094E1,1.255221389E1
7.207962375E0,2.484832764E-1,-7.467970276E-1,1.264510437E1,1.266957435E1
7.217967375E0,-1.550775146E-1,-9.592053223E-1,1.236533615E1,1.240345363E1
7.227973375E0,-4.269122314E-1,-1.013841705E0,1.181882263E1,1.186990722E1
7.237978375E0,-3.382965088E-1,-6.917115784E-1,1.089599167E1,1.092316547E1
7.247983375E0,1.157093811E-1,-7.828720093E-2,9.826765137E0,9.827758168E0
7.257989375E0,6.216572571E-1,4.558021545E-1,8.788973236E0,8.822712955E0
7.267994375E0,1.102008362E0,7.216493225E-1,7.908055115E0,8.017015397E0
7.277999375E0,1.413360901E0,7.240443420E-1,7.292535095E0,7.463437369E0
7.288003750E0,1.523681488E0,5.445675659E-1,6.988367615E0,7.173244805E0
7.298008750E0,1.419348450E0,2.341131592E-1,7.022945709E0,7.168760383E0
7.308013750E0,1.174457703E0,-1.724414062E-1,7.336693268E0,7.432103003E0
7.318019750E0,8.795709229E-1,-5.402265930E-1,7.783663788E0,7.851809457E0
7.328024750E0,6.474037170E-1,-7.493417358E-1,8.252189484E0,8.311394341E0
7.338029750E0,5.456153870E-1,-7.382647705E-1,8.680748291E0,8.729153562E0
7.348035750E0,5.289999390E-1,-5.381309509E-1,9.069789276E0,9.101126489E0
7.358040750E0,6.120771790E-1,-1.993853760E-1,9.470505981E0,9.492358850E0
7.368045750E0,7.023394775E-1,1.785786438E-1,9.858948212E0,9.885546566E0
7.378051750E0,7.267387390E-1,4.816983032E-1,1.016042130E1,1.019776168E1
7.388056750E0,7.551795959E-1,6.566844177E-1,1.037881714E1,1.042695429E1
7.398061750E0,7.952961731E-1,6.075865173E-1,1.052401520E1,1.057149721E1
7.408067750E0,7.619155884E-1,4.056564331E-1,1.057460999E1,1.060978081E1
7.418072750E0,6.697073364E-1,1.327738953E-1,1.054976166E1,1.057183087E1
7.428078750E0,5.578898621E-1,-1.435514832E-1,1.042986099E1,1.044575744E1
7.438083750E0,4.408332825E-1,-3.234773254E-1,1.020128632E1,1.021592943E1
7.448088750E0,3.525169373E-1,-3.881428528E-1,9.914033661E0,9.927889327E0
7.458094750E0,3.655398560E-1,-2.736309814E-1,9.639803925E0,9.650612053E0
7.468099750E0,4.550537109E-1,-3.143463135E-3,9.424252167E0,9.435232518E0
7.478104750E0,5.412744141E-1,3.207829285E-1,9.263187103E0,9.284530951E0
7.488110750E0,6.259982300E-1,6.491999817E-1,9.139993286E0,9.184378676E0
7.498115750E0,6.788383484E-1,8.855584717E-1,9.000333710E0,9.069236032E0
7.508120750E0,6.493496704E-1,9.773176575E-1,8.803193665E0,8.881048558E0
7.518126750E0,5.971083069E-1,9.913883972E-1,8.635691986E0,8.712896497E0
7.528131750E0,5.144801331E-1,9.584568787E-1,8.502319336E0,8.571625487E0
7.538136750E0,3.962260437E-1,8.925938416E-1,8.368198242E0,8.424990247E0
7.548142750E0,3.926335144E-1,8.816665649E-1,8.334967346E0,8.390660145E0
7.558147750E0,4.385879517E-1,9.857002258E-1,8.424930267E0,8.493727941E0
7.568152750E0,5.234614563E-1,1.120569763E0,8.668773193E0,8.756558523E0
7.578158750E0,6.337820435E-1,1.260977783E0,9.004524994E0,9.114450889E0
7.588163750E0,6.936575317E-1,1.341510315E0,9.362580414E0,9.483602833E0
7.598169750E0,6.523434448E-1,1.328936462E0,9.675729218E0,9.788327742E0
7.608174750E0,6.192622375E-1,1.264570312E0,9.934690704E0,1.003397744E1
7.618179750E0,5.613327026E-1,1.135239258E0,1.011356873E1,1.019255292E1
7.628185750E0,4.828958130E-1,9.732760620E-1,1.022194336E1,1.027952240E1
7.638190750E0,4.340972900E-1,8.545729065E-1,1.025143204E1,1.029614462E1
7.648195750E0,3.608995056E-1,7.851173401E-1,1.021835083E1,1.025482088E1
7.658201750E0,3.269201660E-1,7.445516968E-1,1.016655853E1,1.019902674E1
7.668206750E0,4.014651489E-1,8.033793640E-1,1.019365219E1,1.023313919E1
7.678211750E0,4.870870972E-1,8.873547363E-1,1.032058823E1,1.037011059E1
7.688217750E0,4.721182251E-1,9.568103027E-1,1.049931656E1,1.055338949E1
7.698222750E0,3.668870544E-1,1.001716919E0,1.063328796E1,1.068666720E1
7.708227750E0,2.424957275E-1,1.005608826E0,1.069316345E1,1.074308140E1
7.718233750E0,1.101708984E-1,9.824070740E-1,1.070274353E1,1.074830128E1
7.728238750E0,-1.811233521E-2,9.848020935E-1,1.067100952E1,1.071637100E1
7.738243750E0,-1.222956848E-1,1.034648438E0,1.056143738E1,1.061270056E1
7.748249750E0,-7.424560547E-2,1.143172760E0,1.044183609E1,1.050448939E1
7.758254750E0,8.996292114E-2,1.311871948E0,1.032717453E1,1.041055403E1
7.768260750E0,2.640509033E-1,1.453926544E0,1.015114059E1,1.025813242E1
7.778265750E0,3.870950317E-1,1.517843628E0,9.907297668E0,1.003036584E1
7.788270750E0,4.496649170E-1,1.610800323E0,9.807006226E0,9.948580166E0
7.798276750E0,3.555107117E-1,1.631756744E0,1.006312363E1,1.020075855E1
7.808281750E0,1.417552185E-1,1.355281677E0,1.054736664E1,1.063502825E1
7.818286750E0,-9.849517822E-2,9.794132996E-1,1.118878281E1,1.123199948E1
7.828292750E0,-3.543132019E-1,6.494993591E-1,1.178184952E1,1.180505677E1
7.838297750E0,-5.215155029E-1,3.721261597E-1,1.218960159E1,1.220642631E1
7.848302750E0,-6.783892822E-1,1.663041687E-1,1.249825974E1,1.251776200E1
7.858308750E0,-7.165599060E-1,1.856140137E-2,1.268836441E1,1.270859528E1
7.868313750E0,-6.551875305E-1,5.089416504E-3,1.252819748E1,1.254531899E1
7.878318750E0,-5.084925842E-1,1.898052979E-1,1.193064011E1,1.194297970E1
7.888324750E0,-2.185455322E-1,4.513114929E-1,1.094568832E1,1.095716830E1
7.898329750E0,-2.859054565E-2,5.587879944E-1,9.718091125E0,9.734184946E0
7.908334750E0,2.664459229E-2,5.757028198E-1,8.487799530E0,8.507342977E0
7.918340750E0,8.502319336E-2,6.111790466E-1,7.451803894E0,7.477309011E0
7.928345750E0,1.812730408E-1,6.712042236E-1,6.727609863E0,6.763439177E0
7.938350750E0,2.299218750E-1,7.243437195E-1,6.337221680E0,6.382626145E0
7.948356750E0,2.719844055E-1,8.310717773E-1,6.323749695E0,6.383922463E0
7.958361750E0,1.601669312E-1,9.958790588E-1,6.822512512E0,6.896673512E0
7.968367750E0,-1.426533508E-1,1.110091553E0,7.717501373E0,7.798235742E0
7.978372750E0,-4.421804810E-1,1.149160309E0,8.794811096E0,8.880585297E0
7.988377750E0,-5.625302124E-1,1.232686615E0,9.882000275E0,9.974461688E0
7.998383750E0,-6.277944946E-1,1.298998718E0,1.080827408E1,1.090414197E1
8.008388750E0,-7.438032532E-1,1.235530701E0,1.148097519E1,1.157119573E1
8.018393750E0,-8.589138794E-1,1.073268127E0,1.187166275E1,1.195098381E1
8.028399750E0,-9.508227539E-1,8.285270691E-1,1.203108124E1,1.209700115E1
8.038404750E0,-1.026565247E0,5.770500183E-1,1.192644882E1,1.198444844E1
8.048409750E0,-9.572593689E-1,3.993695068E-1,1.158096725E1,1.162732317E1
8.058415750E0,-7.786807251E-1,3.023712158E-1,1.102397552E1,1.105557816E1
8.068420750E0,-4.692741394E-1,2.998265076E-1,1.038136185E1,1.039628722E1
8.078425750E0,-1.504371643E-1,3.370989990E-1,9.744136963E0,9.751126716E0
8.088431750E0,6.316864014E-2,4.219725037E-1,9.176966400E0,9.186879959E0
8.098436750E0,1.917512512E-1,5.292993164E-1,8.760382690E0,8.778452665E0
8.108441750E0,2.643502808E-1,6.906637573E-1,8.547824707E0,8.579755516E0
8.118447750E0,3.297642517E-1,8.792715454E-1,8.474926300E0,8.526795336E0
8.128452750E0,3.607498169E-1,1.042881317E0,8.536897430E0,8.607924233E0
8.138457750E0,3.218307495E-1,1.168919220E0,8.689430237E0,8.773605018E0
8.148463750E0,1.818717957E-1,1.238225098E0,8.848399658E0,8.936467717E0
8.158468750E0,2.409988403E-2,1.231938171E0,9.038953400E0,9.122550686E0
8.168474750E0,-1.279838562E-1,1.229393463E0,9.229357452E0,9.311757468E0
8.178479750E0,-2.719844055E-1,1.250349884E0,9.347461853E0,9.434637960E0
8.188484750E0,-3.568579102E-1,1.337019653E0,9.407786407E0,9.509017521E0
8.198490750E0,-3.378474426E-1,1.492695923E0,9.517358551E0,9.639626331E0
8.208495750E0,-2.836601257E-1,1.693877563E0,9.633816376E0,9.785709082E0
8.218500750E0,-2.583627319E-1,1.812880096E0,9.680070190E0,9.851753369E0
8.228506750E0,-2.405497742E-1,1.816322937E0,9.707313538E0,9.878705853E0
8.238511750E0,-2.031275940E-1,1.758842468E0,9.851613464E0,1.000944931E1
8.248516750E0,-1.624122620E-1,1.639241180E0,1.002330643E1,1.015776359E1
8.258522750E0,-9.774673462E-2,1.503623199E0,1.013632141E1,1.024770457E1
8.268527750E0,-2.993774414E-3,1.365310822E0,1.014275803E1,1.023423778E1
8.278532750E0,1.091230774E-1,1.213975525E0,1.009979736E1,1.017307973E1
8.288540250E0,1.318757629E-1,1.082848206E0,9.992620239E0,1.005198541E1
8.298545250E0,1.014889526E-1,9.873468018E-1,9.805359650E0,9.855467091E0
8.308550250E0,8.008346558E-2,9.747729492E-1,9.588311005E0,9.638065345E0
8.318556250E0,6.451583862E-2,1.066681824E0,9.336833954E0,9.397789138E0
8.328561250E0,8.277786255E-2,1.245709534E0,9.119785309E0,9.204842665E0
8.338566250E0,1.529818726E-1,1.503473511E0,9.003028107E0,9.128984124E0
8.348572250E0,2.209405518E-1,1.790426788E0,9.012757874E0,9.191531281E0
8.358577250E0,2.420466614E-1,2.036215668E0,9.088650055E0,9.317098296E0
8.368583250E0,2.200424194E-1,2.210303650E0,9.259893951E0,9.522578269E0
8.378588250E0,1.344204712E-1,2.283501434E0,9.465715942E0,9.738183915E0
8.388593250E0,3.053649902E-2,2.216889954E0,9.655521240E0,9.906796857E0
8.398599250E0,-8.367599487E-2,2.026785278E0,9.828112335E0,1.003527042E1
8.408604250E0,-2.844085693E-1,1.759890289E0,1.003692810E1,1.019401922E1
8.418609250E0,-3.098556519E-1,1.558858337E0,1.019574783E1,1.031888190E1
8.428615250E0,-5.014572144E-2,1.433718567E0,9.936936035E0,1.003995823E1
8.438620250E0,-9.160949707E-2,1.249451752E0,9.315428467E0,9.399294096E0
8.448625250E0,-9.355545044E-2,1.273401947E0,8.873247986E0,8.964643605E0
8.458631250E0,-1.960922241E-2,1.368603973E0,8.748257904E0,8.854686765E0
8.468636250E0,2.221380615E-1,1.633553009E0,9.042845306E0,9.191892731E0
8.478641250E0,3.860472107E-1,1.920655975E0,9.709858246E0,9.905518612E0
8.488647250E0,2.956352234E-1,1.878144379E0,1.050260971E1,1.067331426E1
8.498652250E0,8.681945801E-2,1.504970398E0,1.135733231E1,1.145693985E1
8.508657250E0,-1.860630798E-1,1.032852173E0,1.206296494E1,1.210853113E1
8.518663250E0,-5.096900940E-1,5.906716919E-1,1.239392670E1,1.241845788E1
8.528668250E0,-8.135581970E-1,2.992277527E-1,1.227896576E1,1.230952535E1
8.538673250E0,-9.713301086E-1,1.881587219E-1,1.184831131E1,1.188954864E1
8.548679250E0,-7.884104919E-1,2.956352234E-1,1.113175140E1,1.116355143E1
8.558684250E0,-2.347119141E-1,6.156697083E-1,1.019380188E1,1.021507394E1
8.568690250E0,3.462300110E-1,9.710307312E-1,9.292077026E0,9.349089333E0
8.578695250E0,6.486012268E-1,1.200503540E0,8.593928833E0,8.701580609E0
8.588700250E0,8.354127502E-1,1.264420624E0,8.084837494E0,8.225647165E0
8.598706250E0,9.886940002E-1,1.182241516E0,7.732919312E0,7.885001706E0
8.608711250E0,1.125060425E0,1.011895752E0,7.516020355E0,7.666828285E0
8.618716250E0,1.205742645E0,7.529342651E-1,7.462731171E0,7.596912653E0
8.628722250E0,1.152004395E0,4.944218445E-1,7.576644287E0,7.679655314E0
8.638727250E0,1.023721161E0,3.076103210E-1,7.788902893E0,7.861910544E0
8.648732250E0,8.997789001E-1,1.984872437E-1,8.148305511E0,8.200236702E0
8.658738250E0,8.096662903E-1,2.309696960E-1,8.691076813E0,8.731765152E0
8.668743250E0,7.134164429E-1,3.806584167E-1,9.349856873E0,9.384758249E0
8.678748250E0,6.303392029E-1,5.297483826E-1,1.016446289E1,1.019775793E1
8.688754250E0,4.992118835E-1,6.150709534E-1,1.109193420E1,1.112018566E1
8.698759250E0,3.375480652E-1,6.715036011E-1,1.187465652E1,1.189841684E1
8.708764250E0,1.664538574E-1,6.502478027E-1,1.238284973E1,1.240102804E1
8.718770250E0,-5.912704468E-2,5.069956970E-1,1.255693771E1,1.256730780E1
8.728775250E0,-2.427951050E-1,3.421884155E-1,1.243134888E1,1.243842744E1
8.738780250E0,-2.986289978E-1,2.083666992E-1,1.208990891E1,1.209539141E1
8.748786250E0,-2.433938599E-1,1.731898499E-1,1.156869278E1,1.157254889E1
8.758791250E0,-9.355545044E-2,2.537223816E-1,1.081456100E1,1.081794146E1
8.768797250E0,7.349716187E-2,3.562591553E-1,1.004426285E1,1.005084765E1
8.778802250E0,1.823208618E-1,4.776567078E-1,9.420210571E0,9.434074625E0
8.788807250E0,2.121089172E-1,5.774990845E-1,8.952583008E0,8.973697003E0
8.798813250E0,2.216889954E-1,7.373666382E-1,8.652906189E0,8.687096240E0
8.808818250E0,2.420466614E-1,8.913963318E-1,8.523874512E0,8.573774589E0
8.818823250E0,2.430944824E-1,9.967771912E-1,8.460406494E0,8.522390377E0
8.828829250E0,2.314187622E-1,1.077160034E0,8.426576843E0,8.498295457E0
8.838834250E0,2.402503967E-1,1.154100037E0,8.417445831E0,8.499591841E0
8.848839250E0,2.332150269E-1,1.221310272E0,8.410111084E0,8.501526714E0
8.858845250E0,2.362088013E-1,1.315763855E0,8.448730774E0,8.553834275E0
8.868850250E0,2.164498901E-1,1.397044830E0,8.588240662E0,8.703818844E0
8.878855250E0,1.993853760E-1,1.429527283E0,8.879534912E0,8.996079315E0
8.888861250E0,1.746867371E-1,1.410217438E0,9.230105896E0,9.338848084E0
8.898866250E0,1.435514832E-1,1.391206970E0,9.481283569E0,9.583882407E0
8.908871250E0,1.532812500E-1,1.380878448E0,9.597142639E0,9.697188627E0
8.918877250E0,2.067201233E-1,1.344953156E0,9.593699799E0,9.689721772E0
8.928882250E0,2.137554932E-1,1.246757355E0,9.449399872E0,9.533690432E0
8.938887250E0,2.459385681E-1,1.241518250E0,9.361532593E0,9.446700261E0
8.948893250E0,3.016227722E-1,1.307680664E0,9.439370728E0,9.534292042E0
8.958898250E0,3.555107117E-1,1.383423157E0,9.667496338E0,9.772447643E0
8.968903250E0,4.105961609E-1,1.454375610E0,9.986033936E0,1.009973620E1
8.978909250E0,4.206253052E-1,1.482367401E0,1.028915359E1,1.040389449E1
8.988914250E0,4.090992737E-1,1.464404755E0,1.049811905E1,1.060765512E1
8.998919250E0,3.662882996E-1,1.404529266E0,1.062176193E1,1.072048022E1
9.008925250E0,3.454815674E-1,1.351838837E0,1.059930862E1,1.069075157E1
9.018930250E0,3.695814514E-1,1.339264984E0,1.043839325E1,1.053044514E1
9.028936250E0,4.165837097E-1,1.340612183E0,1.015832565E1,1.025487021E1
9.038941250E0,4.376898193E-1,1.314865723E0,9.864935760E0,9.961797117E0
9.048946250E0,3.968247986E-1,1.311871948E0,9.623936920E0,9.721041085E0
9.058952250E0,3.709286499E-1,1.323547668E0,9.470206604E0,9.569439880E0
9.068957250E0,3.659889221E-1,1.349144440E0,9.408385162E0,9.511669148E0
9.078962250E0,3.555107117E-1,1.406475220E0,9.436526642E0,9.547386840E0
9.088968250E0,3.252735901E-1,1.517993317E0,9.564809875E0,9.689979080E0
9.098973250E0,3.686833191E-1,1.691033478E0,9.695488129E0,9.848756859E0
9.108978250E0,3.529660034E-1,1.789828033E0,9.746232605E0,9.915498948E0
9.118984250E0,1.998344421E-1,1.792372742E0,9.858349457E0,1.002195529E1
9.128989250E0,5.239105225E-2,1.825603638E0,1.012165192E1,1.028510627E1
9.138994250E0,-2.784210205E-2,1.799857178E0,1.055125854E1,1.070370580E1
9.149000250E0,-1.130149841E-1,1.566941528E0,1.103116058E1,1.114246750E1
9.159005250E0,-2.633024597E-1,1.156644745E0,1.153276749E1,1.159361381E1
9.169010250E0,-4.818479919E-1,6.571334839E-1,1.189456512E1,1.192244444E1
9.179016250E0,-6.828799438E-1,1.835183716E-1,1.208212509E1,1.210279929E1
9.189021250E0,-8.309220886E-1,-1.582209778E-1,1.207074875E1,1.210034879E1
9.199026250E0,-8.304730225E-1,-3.026705933E-1,1.180924255E1,1.184227616E1
9.209032250E0,-5.625302124E-1,-1.616638184E-1,1.117860397E1,1.119391630E1
9.219037250E0,-1.471440125E-1,1.291813660E-1,1.027643005E1,1.027829528E1
9.229043250E0,1.395098877E-1,3.339555359E-1,9.318272552E0,9.325298530E0
9.239048250E0,2.442919922E-1,4.174818420E-1,8.502768402E0,8.516515729E0
9.249053250E0,2.324665833E-1,4.116439819E-1,7.912396088E0,7.926506376E0
9.259059250E0,1.600172424E-1,3.516188049E-1,7.601791992E0,7.611601855E0
9.269064250E0,4.670288086E-2,3.390449524E-1,7.731721802E0,7.739292904E0
9.279069250E0,-2.291734314E-1,3.628454590E-1,8.305478668E0,8.316558976E0
9.289074000E0,-5.492079163E-1,4.352947998E-1,9.112151184E0,9.139059585E0
9.299079000E0,-7.551795959E-1,5.480104065E-1,9.968071289E0,1.001164606E1
9.309084000E0,-8.786727905E-1,6.985972595E-1,1.071831116E1,1.077693361E1
9.319090000E0,-9.678872681E-1,8.276289368E-1,1.124671234E1,1.131858268E1
9.329095000E0,-9.472302246E-1,9.595046997E-1,1.155911270E1,1.163748172E1
9.339100000E0,-8.846603394E-1,1.061592407E0,1.162123352E1,1.170310518E1
9.349106000E0,-7.972421265E-1,1.041384430E0,1.153067184E1,1.160501916E1
9.359111000E0,-7.165599060E-1,9.517208862E-1,1.122111557E1,1.128417766E1
9.369116000E0,-5.918692017E-1,9.325607300E-1,1.061397812E1,1.067129374E1
9.379122000E0,-4.032614136E-1,9.961784363E-1,9.819131012E0,9.877769236E0
9.389127000E0,-1.945953369E-1,1.100810852E0,9.050778809E0,9.119553110E0
9.399132000E0,-6.182144165E-2,1.188378754E0,8.406219177E0,8.490028669E0
9.409138000E0,1.272354126E-2,1.234931946E0,7.932154999E0,8.027720830E0
9.419143000E0,9.026229858E-2,1.268162842E0,7.746391296E0,7.850029452E0
9.429149000E0,1.342707825E-1,1.311871948E0,7.843239899E0,7.953329414E0
9.439154000E0,1.058299255E-1,1.377285919E0,8.139473877E0,8.255855587E0
9.449159000E0,2.230361938E-2,1.420246582E0,8.586444397E0,8.703138812E0
9.459164000E0,-8.532257080E-2,1.390009460E0,9.059011688E0,9.165429559E0
9.469170000E0,-2.350112915E-1,1.333277435E0,9.432035980E0,9.528701998E0
9.479175000E0,-3.508703613E-1,1.326092377E0,9.649084625E0,9.746099995E0
9.489181000E0,-4.501139832E-1,1.377136230E0,9.724527740E0,9.831863840E0
9.499186000E0,-4.602928162E-1,1.481918335E0,9.699978790E0,9.823316139E0
9.509191000E0,-4.267625427E-1,1.599274292E0,9.605375519E0,9.746950466E0
9.519197000E0,-3.905378723E-1,1.659000092E0,9.502689056E0,9.654320299E0
9.529202000E0,-3.763174438E-1,1.664239197E0,9.421857147E0,9.575108304E0
9.539207000E0,-3.778143311E-1,1.626367950E0,9.418563995E0,9.565415000E0
9.549213000E0,-3.541635132E-1,1.574725342E0,9.515262909E0,9.651187488E0
9.559218000E0,-3.468287659E-1,1.520088959E0,9.640402679E0,9.765670712E0
9.569223000E0,-3.616479492E-1,1.474583588E0,9.791737976E0,9.908749598E0
9.579229000E0,-3.848497009E-1,1.425335999E0,9.935738525E0,1.004482912E1
9.589234000E0,-4.122427368E-1,1.363963623E0,1.001252884E1,1.011341063E1
9.599239000E0,-3.625460815E-1,1.377285919E0,1.005938141E1,1.015970031E1
9.609245000E0,-2.579136658E-1,1.468296661E0,1.007060806E1,1.018035173E1
9.619250000E0,-2.091151428E-1,1.585203552E0,9.965526581E0,1.009298368E1
9.629255000E0,-1.833686829E-1,1.680704956E0,9.827363892E0,9.971733765E0
9.639261000E0,-1.796264648E-1,1.728755035E0,9.697284393E0,9.851811216E0
9.649266000E0,-2.029779053E-1,1.805545349E0,9.599687347E0,9.770117257E0
9.659271000E0,-2.532733154E-1,1.892813873E0,9.545649719E0,9.734799448E0
9.669277000E0,-2.757266235E-1,1.971101074E0,9.548942871E0,9.754156784E0
9.679282000E0,-2.466870117E-1,2.075434113E0,9.607022095E0,9.831742204E0
9.689287000E0,-2.326162720E-1,2.199825439E0,9.743687897E0,9.991636309E0
9.699293000E0,-2.255809021E-1,2.243534546E0,9.876012726E0,1.013015110E1
9.709298000E0,-2.577639771E-1,2.202819214E0,9.967472534E0,1.021123712E1
9.719304000E0,-2.612068176E-1,2.118843842E0,1.005114853E1,1.027537420E1
9.729309000E0,-2.517764282E-1,1.982327728E0,1.012928604E1,1.032450727E1
9.739314000E0,-2.076182556E-1,1.856439514E0,1.016805542E1,1.033822151E1
9.749320000E0,-1.152603149E-1,1.795366516E0,1.014111145E1,1.029945471E1
9.759325000E0,-8.397537231E-2,1.752256165E0,9.873917084E0,1.002854387E1
9.769330000E0,-1.193019104E-1,1.707648926E0,9.300459595E0,9.456682636E0
9.779336000E0,-6.391708374E-2,1.777104492E0,8.820407867E0,8.997876456E0
9.789341000E0,1.134640503E-1,1.971550140E0,8.663085022E0,8.885320824E0
9.799346000E0,3.273692322E-1,2.269879761E0,8.901838531E0,9.192510755E0
9.809352000E0,3.743714905E-1,2.413880310E0,9.567354584E0,9.874271917E0
9.819357000E0,1.155596924E-1,2.146236877E0,1.050171158E1,1.071940450E1
9.829362000E0,-1.556762695E-1,1.661544800E0,1.136391861E1,1.148580047E1
9.839368000E0,-3.415896606E-1,1.317709808E0,1.181957108E1,1.189770159E1
9.849373000E0,-4.493655396E-1,1.125808868E0,1.192794571E1,1.198938130E1
9.859378000E0,-5.125341797E-1,1.013991394E0,1.175774963E1,1.181251651E1
9.869384000E0,-6.188131714E-1,9.136999512E-1,1.128892456E1,1.134273314E1
9.879389000E0,-5.908213806E-1,9.325607300E-1,1.057416092E1,1.063163292E1
9.889394000E0,-2.667453003E-1,1.170565796E0,9.701625366E0,9.775628475E0
9.899400000E0,1.466949463E-1,1.483265533E0,8.886570282E0,9.010700718E0
9.909405000E0,4.716691589E-1,1.724114685E0,8.286617889E0,8.477209404E0
9.919411000E0,7.203021240E-1,1.827250214E0,7.863597565E0,8.105173974E0
9.929416000E0,8.595126343E-1,1.784139862E0,7.667056274E0,7.918691112E0
9.939421000E0,8.725355530E-1,1.643731842E0,7.649842072E0,7.872944581E0
9.949427000E0,7.885601807E-1,1.440753937E0,7.819140015E0,7.989777821E0
9.959432000E0,6.412664795E-1,1.244062958E0,8.071215820E0,8.191668948E0
9.969437000E0,4.691244507E-1,1.103205872E0,8.354875946E0,8.440443888E0
9.979443000E0,3.553610229E-1,1.038540344E0,8.674461365E0,8.743633539E0
9.989448000E0,2.664459229E-1,1.049617310E0,9.054670715E0,9.119196877E0
9.999453000E0,1.425036621E-1,1.095122681E0,9.383686523E0,9.448448219E0
1.000945900E1,4.715194702E-2,1.182241516E0,9.770631866E0,9.842010231E0
1.001946400E1,4.490661621E-3,1.268312531E0,1.026355682E1,1.034162635E1
1.002946900E1,-5.538482666E-2,1.313368835E0,1.070513855E1,1.078554572E1
1.003947500E1,-1.869612122E-1,1.261426849E0,1.101439545E1,1.108796912E1
1.004948000E1,-2.912942505E-1,1.078357544E0,1.117965179E1,1.123531582E1
1.005948500E1,-3.873944092E-1,8.057743835E-1,1.121243362E1,1.124802270E1
1.006949100E1,-4.547543335E-1,5.465135193E-1,1.113444580E1,1.115712157E1
1.007949600E1,-4.153862000E-1,3.875440979E-1,1.089374634E1,1.090854919E1
1.008950100E1,-3.095562744E-1,3.418890381E-1,1.048509613E1,1.049523483E1
1.009950700E1,-1.706451416E-1,4.308041382E-1,1.002899460E1,1.003969345E1
1.010951200E1,-8.247848511E-2,5.777984619E-1,9.631421356E0,9.649089652E0
1.011951700E1,-5.433700562E-2,7.264393616E-1,9.280251617E0,9.308798888E0
1.012952300E1,-8.711883545E-2,8.021818542E-1,8.973988495E0,9.010191725E0
1.013952800E1,-1.137634277E-1,8.152047729E-1,8.717571716E0,8.756343847E0
1.014953300E1,-1.291813660E-1,8.548722839E-1,8.517587585E0,8.561354608E0
1.015953900E1,-1.125659180E-1,9.255253601E-1,8.383167114E0,8.434853831E0
1.016954400E1,-5.284011841E-2,9.897418213E-1,8.349487152E0,8.408110171E0
1.017955000E1,-2.110610962E-2,1.060843964E0,8.354875946E0,8.421982395E0
1.018955500E1,-4.610412598E-2,1.105750580E0,8.407716064E0,8.480241704E0
1.019956000E1,-1.251397705E-1,1.160386963E0,8.497978363E0,8.577749945E0
1.020956600E1,-2.071691895E-1,1.236877899E0,8.659791870E0,8.750130356E0
1.021957100E1,-2.677931213E-1,1.313967590E0,8.860823822E0,8.961719857E0
1.022957600E1,-3.532653809E-1,1.449286194E0,9.078920288E0,9.200653265E0
1.023958200E1,-3.971241760E-1,1.576521606E0,9.310638428E0,9.451513949E0
1.024958700E1,-4.252656555E-1,1.678160248E0,9.539063416E0,9.694885432E0
1.025959200E1,-4.629872131E-1,1.719624023E0,9.732461243E0,9.894052041E0
1.026959800E1,-5.077441406E-1,1.715582428E0,9.897567902E0,1.005797582E1
1.027960300E1,-5.436694336E-1,1.681453400E0,1.002570145E1,1.018025302E1
1.028960413E1,-5.938151550E-1,1.629810791E0,1.013198044E1,1.027939333E1
1.029961013E1,-6.547384644E-1,1.595232697E0,1.023017624E1,1.037448580E1
1.030961513E1,-6.950047302E-1,1.609602814E0,1.037956558E1,1.052659653E1
1.031962013E1,-7.310797119E-1,1.648671570E0,1.059092606E1,1.074338449E1
1.032962613E1,-7.746391296E-1,1.708696747E0,1.082803299E1,1.098935889E1
1.033963113E1,-8.403524780E-1,1.728455658E0,1.104837479E1,1.121429163E1
1.034963613E1,-8.433462524E-1,1.728156281E0,1.116573074E1,1.133010592E1
1.035964213E1,-8.652008057E-1,1.718276825E0,1.112666199E1,1.129175162E1
1.036964713E1,-8.647517395E-1,1.689087524E0,1.094883179E1,1.111205335E1
1.037965313E1,-8.517288208E-1,1.663939819E0,1.067130890E1,1.083378841E1
1.038965813E1,-8.226892090E-1,1.674268341E0,1.030292496E1,1.047044673E1
1.039966313E1,-7.599696350E-1,1.726809082E0,9.934840393E0,1.011239225E1
1.040966913E1,-7.089257812E-1,1.760339355E0,9.648635559E0,9.833490660E0
1.041967413E1,-6.695576477E-1,1.779948578E0,9.452393646E0,9.641798070E0
1.042967913E1,-6.382727051E-1,1.814376984E0,9.349856873E0,9.545636669E0
1.043968513E1,-6.541397095E-1,1.816622314E0,9.287286987E0,9.485869226E0
1.044969013E1,-6.538403320E-1,1.847757568E0,9.332193604E0,9.535803724E0
1.045969513E1,-6.815327454E-1,1.878593445E0,9.446555786E0,9.655620976E0
1.046970113E1,-7.453001404E-1,1.908381500E0,9.524543610E0,9.742398227E0
1.047970613E1,-8.622070313E-1,1.918260956E0,9.577383728E0,9.805580306E0
1.048971113E1,-9.819580078E-1,1.926493835E0,9.643396454E0,9.882849548E0
1.049971713E1,-1.131497040E0,1.967807922E0,9.746382294E0,1.000722346E1
1.050972213E1,-1.223405914E0,1.974992981E0,9.861492920E0,1.013145409E1
1.051972713E1,-1.163380737E0,1.932032318E0,1.011701157E1,1.036533293E1
1.052973313E1,-1.138981476E0,1.775906982E0,1.056293427E1,1.077156928E1
1.053973813E1,-1.262774048E0,1.414109344E0,1.108983856E1,1.125072544E1
1.054974313E1,-1.372495880E0,1.028660889E0,1.161988632E1,1.174579271E1
1.055974913E1,-1.450932770E0,6.786886597E-1,1.207733505E1,1.218309674E1
1.056975413E1,-1.665586395E0,3.849993896E-1,1.207089844E1,1.219134905E1
1.057976013E1,-1.715432739E0,1.474433899E-1,1.169802383E1,1.182405221E1
1.058976513E1,-1.497635651E0,1.143621826E-1,1.093670700E1,1.103936372E1
1.059977013E1,-1.045276337E0,3.129991150E-1,9.937085724E0,9.996811679E0
1.060977613E1,-7.337741089E-1,4.899311829E-1,8.988807678E0,9.032005341E0
1.061978113E1,-5.906716919E-1,5.635780334E-1,8.254285126E0,8.294560638E0
1.062978613E1,-5.364843750E-1,6.056405640E-1,7.832911377E0,7.874586758E0
1.063979213E1,-5.490582275E-1,6.271957397E-1,7.674241333E0,7.719379474E0
1.064979713E1,-5.936654663E-1,6.732998657E-1,7.805218964E0,7.856666880E0
1.065980213E1,-6.686595154E-1,7.635621643E-1,8.294102325E0,8.355971883E0
1.066980813E1,-8.370593262E-1,8.297245789E-1,9.033564606E0,9.110126271E0
1.067981313E1,-1.030157776E0,8.186476135E-1,9.742939453E0,9.831392483E0
1.068981813E1,-1.135388947E0,8.235873413E-1,1.037522461E1,1.046960791E1
1.069982413E1,-1.163380737E0,8.836125183E-1,1.089793762E1,1.099542042E1
1.070982913E1,-1.154399414E0,9.523196411E-1,1.120629639E1,1.130577858E1
1.071983413E1,-1.107846222E0,1.047521667E0,1.128877487E1,1.139127135E1
1.072984013E1,-1.038240967E0,1.173858948E0,1.111962662E1,1.122951403E1
1.073984513E1,-9.159452820E-1,1.305734711E0,1.071681427E1,1.083485150E1
1.074985013E1,-7.491920471E-1,1.431173859E0,1.017898270E1,1.030636871E1
1.075985613E1,-6.197113037E-1,1.526525574E0,9.571695557E0,9.712449653E0
1.076986113E1,-5.177732849E-1,1.582060089E0,9.067993011E0,9.219517371E0
1.077986613E1,-4.372407532E-1,1.578317871E0,8.683891754E0,8.836981542E0
1.078987213E1,-3.918850708E-1,1.542991333E0,8.435857544E0,8.584759092E0
1.079987713E1,-3.995191956E-1,1.515149231E0,8.370892639E0,8.516286536E0
1.080988213E1,-4.390370178E-1,1.483564911E0,8.506061554E0,8.645623257E0
1.081988813E1,-5.001100159E-1,1.487456818E0,8.784482574E0,8.923551530E0
1.082989313E1,-5.592370605E-1,1.518891449E0,9.096284180E0,9.239164638E0
1.083989813E1,-5.966592407E-1,1.557211761E0,9.428742828E0,9.575077130E0
1.084990413E1,-6.626719666E-1,1.589694214E0,9.674082642E0,9.826196456E0
1.085990913E1,-7.161108398E-1,1.622775421E0,9.809101868E0,9.968184100E0
1.086991513E1,-7.322772217E-1,1.660047913E0,9.933942261E0,1.009827697E1
1.087992013E1,-7.469467163E-1,1.674118652E0,9.990973663E0,1.015776341E1
1.088992513E1,-7.589218140E-1,1.666783905E0,9.989925842E0,1.015641419E1
1.089993113E1,-7.128176880E-1,1.637744293E0,9.997559967E0,1.015586140E1
1.090993613E1,-6.770420837E-1,1.623074799E0,9.991422729E0,1.014501286E1
1.091994113E1,-6.496490479E-1,1.594334564E0,9.910291443E0,1.005871876E1
1.092994713E1,-5.882766724E-1,1.553319855E0,9.778415680E0,9.918482002E0
1.093995213E1,-5.598358154E-1,1.553619232E0,9.595795441E0,9.736859812E0
1.094995713E1,-5.574407959E-1,1.588197327E0,9.420360260E0,9.569550586E0
1.095996313E1,-5.769003296E-1,1.659449158E0,9.321416016E0,9.485535411E0
1.096996813E1,-5.676196289E-1,1.800605621E0,9.286837921E0,9.476799630E0
1.097997313E1,-5.459147644E-1,1.975591736E0,9.290580139E0,9.513982602E0
1.098997913E1,-5.487588501E-1,2.125579834E0,9.343869324E0,9.598287339E0
1.099998413E1,-6.002517700E-1,2.241289215E0,9.396260376E0,9.678501361E0
1.100998913E1,-6.701564026E-1,2.329306183E0,9.389674072E0,9.697461321E0
1.101999513E1,-7.176077271E-1,2.419867859E0,9.341923370E0,9.676892764E0
1.103000013E1,-7.475454712E-1,2.505938873E0,9.285341034E0,9.646559593E0
1.104000513E1,-7.607180786E-1,2.616259460E0,9.256451111E0,9.649113572E0
1.105001113E1,-8.132588196E-1,2.722388763E0,9.315428467E0,9.739096365E0
1.106001613E1,-8.909472656E-1,2.803370361E0,9.512867889E0,9.957275124E0
1.107002113E1,-9.746232605E-1,2.820285187E0,9.788594513E0,1.023330257E1
1.108002713E1,-1.033301239E0,2.801125031E0,1.004905289E1,1.048319974E1
1.109003213E1,-1.069825287E0,2.768492889E0,1.030367340E1,1.072262862E1
1.110003713E1,-1.051114197E0,2.724334717E0,1.054826477E1,1.094498654E1
1.111004313E1,-9.196875000E-1,2.675386505E0,1.065454376E1,1.102373897E1
1.112004813E1,-7.646099854E-1,2.580633545E0,1.039603134E1,1.073879721E1
1.113005413E1,-5.929170227E-1,2.417921906E0,9.950707397E0,1.025741072E1
1.114005913E1,-3.065625000E-1,2.331701202E0,9.728120270E0,1.000835326E1
1.115006413E1,1.556762695E-2,2.279010773E0,9.823771362E0,1.008467234E1
1.116007013E1,2.041754150E-1,2.199376373E0,1.022284149E1,1.045874907E1
1.117007513E1,5.867797852E-2,1.950294342E0,1.090602081E1,1.107918684E1
1.118008013E1,-2.800675964E-1,1.553170166E0,1.162961609E1,1.173621514E1
1.119008613E1,-5.529501343E-1,1.203796692E0,1.213152237E1,1.220363533E1
1.120009113E1,-6.972500610E-1,1.060694275E0,1.230082031E1,1.236613967E1
1.121009613E1,-7.405101013E-1,1.047970734E0,1.202090240E1,1.208919735E1
1.122010213E1,-7.463479614E-1,1.025517426E0,1.148187332E1,1.155171573E1
1.123010713E1,-5.059478760E-1,1.038540344E0,1.059032730E1,1.065314891E1
1.124011213E1,-1.160087585E-1,1.289268951E0,9.513915710E0,9.601576152E0
1.125011813E1,1.678010559E-1,1.531315613E0,8.472531281E0,8.611438382E0
1.126012313E1,4.044589233E-1,1.644779663E0,7.567962341E0,7.755188016E0
1.127012813E1,6.378236389E-1,1.670526123E0,6.927444305E0,7.154506351E0
1.128013413E1,8.632548523E-1,1.653760986E0,6.582262115E0,6.841513641E0
1.129013975E1,1.056053925E0,1.600771179E0,6.583609314E0,6.857231939E0
1.130014475E1,1.125359802E0,1.440155182E0,6.878795471E0,7.117465052E0
1.131015075E1,9.963281250E-1,1.159339142E0,7.392227783E0,7.548626933E0
1.132015575E1,7.235952759E-1,8.205935669E-1,8.004903717E0,8.079322214E0
1.133016075E1,4.477189636E-1,5.798941040E-1,8.564739532E0,8.596016095E0
1.134016675E1,2.942880249E-1,5.245092773E-1,9.026678925E0,9.046692646E0
1.135017175E1,2.435435486E-1,6.527925110E-1,9.459728394E0,9.485352540E0
1.136017675E1,2.049238586E-1,8.355624390E-1,9.909842377E0,9.947116884E0
1.137018275E1,1.169068909E-1,9.801617432E-1,1.050725006E1,1.055351544E1
1.138018775E1,-2.380050659E-2,1.100511475E0,1.120045853E1,1.125441972E1
1.139019275E1,-1.562750244E-1,1.163530426E0,1.179068115E1,1.184898253E1
1.140019875E1,-2.483335876E-1,1.128802643E0,1.216325638E1,1.221804693E1
1.141020375E1,-3.722758484E-1,1.003213806E0,1.229917374E1,1.234563493E1
1.142020975E1,-5.224136353E-1,8.006849670E-1,1.215756821E1,1.219510054E1
1.143021475E1,-6.752458191E-1,5.688171387E-1,1.166628983E1,1.169965077E1
1.144021975E1,-6.806346130E-1,4.834945679E-1,1.087817871E1,1.091016968E1
1.145022575E1,-4.935237122E-1,6.457571411E-1,9.999655609E0,1.003263077E1
1.146023075E1,-2.826123047E-1,9.663903809E-1,9.242230682E0,9.296913900E0
1.147023575E1,-1.544787598E-1,1.284628601E0,8.635242920E0,8.731641004E0
1.148024175E1,-6.182144165E-2,1.470392303E0,8.223449249E0,8.354100369E0
1.149024675E1,-4.939727783E-3,1.561403046E0,7.995173950E0,8.146214481E0
1.150025175E1,-1.347198486E-3,1.645977173E0,7.929011536E0,8.098053260E0
1.151025775E1,-4.281097412E-2,1.736987915E0,7.999215546E0,8.185744263E0
1.152026275E1,-8.876541138E-2,1.824106750E0,8.153095551E0,8.355130866E0
1.153026775E1,-1.193019104E-1,1.933828583E0,8.311166840E0,8.534015477E0
1.154027375E1,-1.318757629E-1,2.044149170E0,8.387957153E0,8.634452053E0
1.155027875E1,-9.684860229E-2,2.152823181E0,8.450077972E0,8.720541557E0
1.156028375E1,-7.499404907E-2,2.214345245E0,8.476722565E0,8.761493846E0
1.157028975E1,-7.873626709E-2,2.233954468E0,8.485404510E0,8.774898385E0
1.158029475E1,-1.028361511E-1,2.240241394E0,8.534801788E0,8.824516890E0
1.159029975E1,-1.371148682E-1,2.234403534E0,8.606203308E0,8.892586520E0
1.160030575E1,-1.713935852E-1,2.213896179E0,8.711733856E0,8.990273568E0
1.161031075E1,-2.070195007E-1,2.184108124E0,8.811725922E0,9.080732299E0
1.162031575E1,-2.496807861E-1,2.150727539E0,8.964558105E0,9.222324624E0
1.163032175E1,-2.493814087E-1,2.138003998E0,9.106163635E0,9.357107904E0
1.164032675E1,-2.404000854E-1,2.157164154E0,9.247469788E0,9.498781336E0
1.165033175E1,-2.230361938E-1,2.171833649E0,9.398805084E0,9.649048842E0
1.166033775E1,-2.267784119E-1,2.194586334E0,9.602980499E0,9.853165588E0
1.167034275E1,-2.537223816E-1,2.194586334E0,9.854607239E0,1.009920136E1
1.168034775E1,-2.797682190E-1,2.190095673E0,1.010099487E1,1.033948194E1
1.169035375E1,-3.653901672E-1,2.187101898E0,1.023990601E1,1.047724199E1
1.170035875E1,-4.391867065E-1,2.219734039E0,1.029229706E1,1.053809674E1
1.171036375E1,-5.019062805E-1,2.226470032E0,1.023631348E1,1.048766858E1
1.172036975E1,-5.040019226E-1,2.278861084E0,1.010593460E1,1.037194003E1
1.173037475E1,-4.942721558E-1,2.343227234E0,9.951006775E0,1.023511381E1
1.174038075E1,-5.025050354E-1,2.406695251E0,9.819430389E0,1.012254447E1
1.175038575E1,-5.114863586E-1,2.439776459E0,9.701475677E0,1.001662407E1
1.176039075E1,-4.761598206E-1,2.486329651E0,9.677076416E0,1.000271819E1
1.177039675E1,-4.278103638E-1,2.551893311E0,9.721234589E0,1.005970094E1
1.178040175E1,-4.318519592E-1,2.590662689E0,9.756710815E0,1.010403064E1
1.179040675E1,-4.659809875E-1,2.546205139E0,9.762398987E0,1.009973925E1
1.180041275E1,-5.550457764E-1,2.525398407E0,9.797875214E0,1.013331494E1
1.181041775E1,-6.312373352E-1,2.492766266E0,1.000743942E1,1.033253057E1
1.182042275E1,-6.568341064E-1,2.374512177E0,1.045934967E1,1.074559141E1
1.183042875E1,-7.194039917E-1,2.124831390E0,1.119417160E1,1.141673895E1
1.184043375E1,-8.430468750E-1,1.732347565E0,1.216400482E1,1.231563110E1
1.185043875E1,-9.891430664E-1,1.274150391E0,1.310734314E1,1.320622230E1
1.186044475E1,-1.188229065E0,8.955876160E-1,1.358514954E1,1.366639138E1
1.187044975E1,-1.399739227E0,5.947132874E-1,1.362257172E1,1.370720300E1
1.188045475E1,-1.557511139E0,3.610491943E-1,1.322260345E1,1.331891285E1
1.189046075E1,-1.575773163E0,3.161425781E-1,1.233330276E1,1.243757871E1
1.190046575E1,-1.306333466E0,5.319937134E-1,1.099343903E1,1.108355656E1
1.191047075E1,-9.964778137E-1,8.291258240E-1,9.611063690E0,9.698090684E0
1.192047675E1,-8.779243469E-1,1.042581940E0,8.359067230E0,8.469458850E0
1.193048175E1,-7.884104919E-1,1.206491089E0,7.506140900E0,7.643256051E0
1.194048675E1,-8.216413879E-1,1.380279694E0,7.017257538E0,7.198761696E0
1.195049275E1,-8.219407654E-1,1.506766663E0,6.926995239E0,7.136469396E0
1.196049775E1,-9.017248535E-1,1.574126587E0,7.080875244E0,7.309567460E0
1.197050275E1,-1.027613068E0,1.579515381E0,7.476652222E0,7.710459513E0
1.198050875E1,-1.145867157E0,1.591789856E0,8.053851929E0,8.289230204E0
1.199051375E1,-1.192570038E0,1.658101959E0,8.723110199E0,8.959027679E0
1.200051875E1,-1.231788483E0,1.819765778E0,9.405092010E0,9.658395626E0
1.201052475E1,-1.353635101E0,1.916015625E0,1.004231689E1,1.031268988E1
1.202052975E1,-1.503922577E0,1.869612122E0,1.063014450E1,1.089757793E1
1.203053475E1,-1.635948029E0,1.823957062E0,1.112651230E1,1.139308655E1
1.204054075E1,-1.735341339E0,1.820514221E0,1.144385239E1,1.171697226E1
1.205054575E1,-1.763931885E0,1.811981964E0,1.154668854E1,1.182035323E1
1.206055075E1,-1.664089508E0,1.763482819E0,1.138352783E1,1.163889047E1
1.207055675E1,-1.395398254E0,1.680704956E0,1.089718918E1,1.111398387E1
1.208056175E1,-1.006656647E0,1.564247131E0,1.024394760E1,1.041146912E1
1.209056775E1,-6.524931335E-1,1.507515106E0,9.513466644E0,9.654242419E0
1.210057275E1,-4.270619202E-1,1.503323822E0,8.812624054E0,8.950123302E0
1.211057775E1,-3.185375977E-1,1.461710358E0,8.272098083E0,8.406287532E0
1.212058375E1,-3.103047180E-1,1.415755920E0,7.952662354E0,8.083655878E0
1.213058875E1,-3.718267822E-1,1.435963898E0,7.850574646E0,7.989478690E0
1.214059375E1,-4.326004028E-1,1.537901917E0,7.849377136E0,8.010306289E0
1.215059975E1,-4.514611816E-1,1.730551300E0,7.933502197E0,8.132593812E0
1.216060475E1,-4.656816101E-1,1.938618622E0,8.121960297E0,8.363093960E0
1.217060975E1,-5.032534790E-1,2.153272247E0,8.366551666E0,8.653844938E0
1.218061575E1,-5.857319641E-1,2.355052643E0,8.666677551E0,9.000036370E0
1.219062075E1,-6.804849243E-1,2.488874359E0,8.960366821E0,9.324469362E0
1.220062575E1,-7.634124756E-1,2.605930939E0,9.205407257E0,9.597562057E0
1.221063175E1,-8.297245789E-1,2.704276428E0,9.337881775E0,9.756925229E0
1.222063675E1,-8.580157471E-1,2.729274445E0,9.372160492E0,9.799108240E0
1.223064175E1,-8.430468750E-1,2.658621368E0,9.377698975E0,9.783671789E0
1.224064775E1,-8.581654358E-1,2.515818329E0,9.326056366E0,9.697479937E0
1.225065275E1,-8.909472656E-1,2.361189880E0,9.302106171E0,9.638370396E0
1.226065775E1,-9.065148926E-1,2.228415985E0,9.333540802E0,9.638599014E0
1.227066375E1,-8.596623230E-1,2.115850067E0,9.378746796E0,9.652809553E0
1.228066875E1,-7.601193237E-1,2.033521271E0,9.446406097E0,9.692655895E0
1.229067363E1,-6.962022400E-1,1.941612396E0,9.519903259E0,9.740796391E0
1.230067963E1,-7.095245361E-1,1.906136169E0,9.602381744E0,9.815422320E0
1.231068463E1,-7.929011536E-1,1.935924225E0,9.689500580E0,9.912765322E0
1.232068963E1,-8.388555908E-1,2.008074188E0,9.757010193E0,9.996763904E0
1.233069563E1,-8.232879639E-1,2.111060028E0,9.755662994E0,1.001535511E1
1.234070063E1,-8.177494812E-1,2.244732056E0,9.665999451E0,9.956861031E0
1.235070563E1,-8.036787415E-1,2.347418518E0,9.522148590E0,9.840100964E0
1.236071163E1,-8.105644226E-1,2.445015564E0,9.333241425E0,9.682174925E0
1.237071663E1,-8.048762512E-1,2.553988953E0,9.126371613E0,9.511116872E0
1.238072163E1,-8.201445007E-1,2.662962341E0,8.985664215E0,9.407771618E0
1.239072763E1,-8.346643066E-1,2.744243317E0,8.942254486E0,9.391030358E0
1.240073263E1,-8.270301819E-1,2.836750946E0,9.048832855E0,9.519060400E0
1.241073763E1,-8.015830994E-1,2.910248108E0,9.298214264E0,9.775933102E0
1.242074363E1,-8.174501038E-1,2.942281494E0,9.620194702E0,1.009323492E1
1.243074863E1,-8.857081604E-1,2.918181610E0,9.880802765E0,1.034072174E1
1.244075363E1,-9.210346985E-1,2.875670013E0,1.007539810E1,1.051814764E1
1.245075963E1,-9.521699524E-1,2.884052582E0,1.021131546E1,1.065341965E1
1.246076463E1,-9.994715881E-1,2.813998260E0,1.009665390E1,1.052900516E1
1.247076963E1,-9.479786682E-1,2.755769348E0,9.774074707E0,1.019928746E1
1.248077563E1,-7.933502197E-1,2.901566162E0,9.558223572E0,1.002038565E1
1.249078063E1,-5.724096680E-1,3.148851929E0,9.624685364E0,1.014285412E1
1.250078663E1,-3.424877930E-1,3.338208160E0,9.938283234E0,1.048953789E1
1.251079163E1,-2.085163879E-1,3.290008392E0,1.044063858E1,1.094872450E1
1.252079663E1,-3.082090759E-1,2.905907135E0,1.103684875E1,1.141715024E1
1.253080263E1,-5.020559692E-1,2.475701752E0,1.157962006E1,1.185195174E1
1.254080763E1,-6.785389709E-1,2.119741974E0,1.192659851E1,1.213249658E1
1.255081263E1,-8.913963318E-1,1.786085815E0,1.211595474E1,1.227929352E1
1.256081863E1,-1.175056458E0,1.462758179E0,1.210173431E1,1.224632159E1
1.257082363E1,-1.328786774E0,1.309925995E0,1.187869812E1,1.202435235E1
1.258082863E1,-1.212927704E0,1.434167633E0,1.135314102E1,1.150746894E1
1.259083463E1,-8.619076538E-1,1.694925385E0,1.057371185E1,1.074332533E1
1.260083963E1,-3.474275208E-1,1.972148895E0,9.754615173E0,9.958041691E0
1.261084463E1,2.933898926E-2,2.128872986E0,8.961414642E0,9.210858448E0
1.262085063E1,2.100132751E-1,2.108365631E0,8.223299561E0,8.491876522E0
1.263085563E1,3.510200500E-1,1.986369324E0,7.708370361E0,7.967926443E0
1.264086063E1,3.315605164E-1,1.812730408E0,7.522007904E0,7.744451357E0
1.265086663E1,2.004331970E-1,1.570833435E0,7.478598175E0,7.644417689E0
1.266087163E1,3.263214111E-2,1.340013428E0,7.633975067E0,7.750759716E0
1.267087663E1,-1.360670471E-1,1.178349609E0,7.950716400E0,8.038713412E0
1.268088263E1,-1.941462708E-1,1.119222565E0,8.388106842E0,8.464672960E0
1.269088763E1,-2.049238586E-1,1.238374786E0,8.888366547E0,8.976559796E0
1.270089263E1,-2.528242493E-1,1.446142731E0,9.447154541E0,9.560542758E0
1.271089863E1,-4.005670166E-1,1.564546509E0,1.009276199E1,1.022115964E1
1.272090363E1,-5.333409119E-1,1.579964447E0,1.070573730E1,1.083483047E1
1.273090863E1,-6.137237549E-1,1.566791840E0,1.127051285E1,1.139543564E1
1.274091463E1,-7.234455872E-1,1.480122070E0,1.172556656E1,1.184073672E1
1.275091963E1,-8.581654358E-1,1.381776581E0,1.199650314E1,1.210627284E1
1.276092463E1,-9.806108093E-1,1.277593231E0,1.203617065E1,1.214344457E1
1.277093063E1,-1.134939880E0,1.125808868E0,1.180280594E1,1.191057354E1
1.278093563E1,-1.286125488E0,1.000220032E0,1.125255020E1,1.136989204E1
1.279094063E1,-1.199455719E0,1.091081085E0,1.035157379E1,1.047779709E1
1.280094663E1,-9.514215088E-1,1.413959656E0,9.342971191E0,9.497136172E0
1.281095163E1,-7.803273010E-1,1.720971222E0,8.423732758E0,8.633071656E0
1.282095663E1,-6.117778015E-1,1.937720490E0,7.699239349E0,7.962871300E0
1.283096263E1,-4.643344116E-1,2.113455048E0,7.203919373E0,7.521884937E0
1.284096763E1,-3.574566650E-1,2.234702911E0,6.913373566E0,7.274366394E0
1.285097263E1,-2.986289978E-1,2.293979645E0,6.854096832E0,7.233959170E0
1.286097863E1,-3.478765869E-1,2.291285248E0,7.053033142E0,7.424034126E0
1.287098363E1,-4.445755005E-1,2.262245636E0,7.409441986E0,7.759847501E0
1.288098863E1,-5.475613403E-1,2.309247894E0,7.814799042E0,8.167223110E0
1.289099463E1,-6.111790466E-1,2.396666107E0,8.245603180E0,8.608572475E0
1.290099963E1,-6.198609924E-1,2.497107239E0,8.658444672E0,9.032631751E0
1.291100463E1,-6.330335999E-1,2.572550354E0,9.031319275E0,9.411879446E0
1.292101063E1,-6.583309937E-1,2.592309265E0,9.307195587E0,9.683870957E0
1.293101563E1,-6.759942627E-1,2.596201172E0,9.526190186E0,9.896743314E0
1.294102163E1,-6.698570251E-1,2.591560822E0,9.689350891E0,1.005228415E1
1.295102662E1,-6.632707214E-1,2.555036774E0,9.775272217E0,1.012541791E1
1.296103163E1,-6.469546509E-1,2.507136383E0,9.849517822E0,1.018416833E1
1.297103763E1,-5.887257385E-1,2.453248444E0,9.906399536E0,1.022261110E1
1.298104263E1,-5.502557373E-1,2.403701477E0,1.001103195E1,1.031025329E1
1.299104763E1,-5.237608337E-1,2.361489258E0,1.011925690E1,1.040434126E1
1.300105363E1,-5.122348022E-1,2.332449646E0,1.024514511E1,1.051977681E1
1.301105863E1,-5.156776428E-1,2.297422485E0,1.037567368E1,1.063948672E1
1.302106363E1,-5.617817688E-1,2.281106415E0,1.052176987E1,1.078084813E1
1.303106963E1,-6.450086975E-1,2.274819489E0,1.060290115E1,1.086334906E1
1.304107463E1,-7.622149658E-1,2.290387115E0,1.064511337E1,1.091536914E1
1.305107963E1,-8.698411560E-1,2.329755249E0,1.057745407E1,1.086586020E1
1.306108563E1,-8.960366821E-1,2.425406342E0,1.034813095E1,1.066626888E1
1.307109063E1,-8.424481201E-1,2.546803894E0,9.956545258E0,1.031158195E1
1.308109563E1,-7.825726318E-1,2.643053741E0,9.537416840E0,9.927762738E0
1.309110163E1,-7.735913086E-1,2.684367828E0,9.228908386E0,9.642459445E0
1.310110663E1,-7.667056274E-1,2.762804718E0,9.020841064E0,9.465542823E0
1.311111163E1,-7.327262878E-1,2.904709625E0,8.899293823E0,9.389976378E0
1.312111763E1,-7.379653931E-1,3.019371185E0,8.651858368E0,9.193250159E0
1.313112263E1,-7.741900635E-1,3.016377411E0,8.301137695E0,8.866047032E0
1.314112763E1,-7.716453552E-1,3.026107178E0,8.249195709E0,8.820543694E0
1.315113363E1,-7.743397522E-1,3.092868347E0,8.670719147E0,9.238333572E0
1.316113863E1,-6.430627441E-1,3.055146790E0,9.442065125E0,9.944850196E0
1.317114363E1,-5.577401733E-1,2.840044098E0,1.061682220E1,1.100426455E1
1.318114963E1,-8.122109985E-1,2.341580658E0,1.171628586E1,1.197556015E1
1.319115463E1,-1.315614166E0,1.818717957E0,1.274135422E1,1.293756866E1
1.320115963E1,-1.880838776E0,1.344504089E0,1.347063766E1,1.366760128E1
1.321116563E1,-2.446362762E0,1.028361511E0,1.380489258E1,1.405764124E1
1.322117063E1,-2.829116821E0,9.276210022E-1,1.370864273E1,1.402823112E1
1.323117563E1,-2.876119080E0,9.418414307E-1,1.324879898E1,1.359006257E1
1.324118163E1,-2.596350861E0,1.184337158E0,1.237341934E1,1.269823604E1
1.325118663E1,-2.085612946E0,1.631607056E0,1.114447495E1,1.145474769E1
1.326119163E1,-1.697619781E0,1.972298584E0,9.863887939E0,1.020138029E1
1.327119763E1,-1.551822968E0,2.079924774E0,8.634793854E0,9.016313353E0
1.328120263E1,-1.529369659E0,2.008074188E0,7.658973083E0,8.064192594E0
1.329120750E1,-1.552870789E0,1.913171539E0,6.953190765E0,7.376889239E0
1.330121350E1,-1.510209503E0,1.857337646E0,6.573879547E0,6.996165248E0
1.331121850E1,-1.442849579E0,1.824256439E0,6.443500671E0,6.850432641E0
1.332122350E1,-1.426383820E0,1.878443756E0,6.594237213E0,7.003362490E0
1.333122950E1,-1.402134247E0,2.023791504E0,7.100334778E0,7.515082598E0
1.334123450E1,-1.530267792E0,2.121238861E0,7.825726318E0,8.251264523E0
1.335124050E1,-1.670226746E0,2.111209717E0,8.604856110E0,9.016119593E0
1.336124550E1,-1.652563477E0,2.120939484E0,9.402247925E0,9.779141904E0
1.337125050E1,-1.593286743E0,2.169139252E0,1.008243347E1,1.043547759E1
1.338125650E1,-1.513802032E0,2.233206024E0,1.051473450E1,1.085534188E1
1.339126150E1,-1.389560394E0,2.282154236E0,1.068807404E1,1.101698837E1
1.340126650E1,-1.224004669E0,2.255958710E0,1.051563263E1,1.082432754E1
1.341127250E1,-1.041085052E0,2.152374115E0,1.007000931E1,1.034995941E1
1.342127750E1,-8.393046570E-1,2.022893372E0,9.458680573E0,9.708922086E0
1.343128250E1,-6.812333679E-1,1.885329437E0,8.866511993E0,9.090301476E0
1.344128850E1,-5.848338318E-1,1.789528656E0,8.380472717E0,8.589340277E0
1.345129350E1,-5.282514954E-1,1.726210327E0,8.055199127E0,8.255003617E0
1.346129850E1,-5.447172546E-1,1.716031494E0,7.812104645E0,8.016885926E0
1.347130450E1,-5.369334412E-1,1.784439240E0,7.766299896E0,7.986734940E0
1.348130950E1,-5.881269836E-1,1.936672668E0,7.907306671E0,8.162235795E0
1.349131450E1,-7.009922791E-1,2.139051819E0,8.174650726E0,8.478906024E0
1.350132050E1,-7.912545776E-1,2.371069336E0,8.575068054E0,8.931956434E0
1.351132550E1,-8.466394043E-1,2.598446503E0,8.960666199E0,9.368151431E0
1.352133050E1,-9.208850098E-1,2.810705109E0,9.294472046E0,9.753732774E0
1.353133650E1,-9.755213928E-1,2.979703674E0,9.516610107E0,1.001978762E1
1.354134150E1,-9.846524048E-1,3.096311188E0,9.647288361E0,1.017972770E1
1.355134650E1,-9.888436890E-1,3.144061890E0,9.698930969E0,1.024364188E1
1.356135250E1,-1.003962250E0,3.104394379E0,9.636660461E0,1.017400754E1
1.357135750E1,-9.999206543E-1,3.023263092E0,9.561217346E0,1.007754128E1
1.358136250E1,-9.741741943E-1,2.916235657E0,9.514364777E0,9.998829075E0
1.359136850E1,-9.776170349E-1,2.830613708E0,9.456135864E0,9.919002698E0
1.360137350E1,-9.774673462E-1,2.794688416E0,9.381590881E0,9.837681293E0
1.361137850E1,-9.464817810E-1,2.794089661E0,9.315727844E0,9.771670792E0
1.362138450E1,-9.033714294E-1,2.826123047E0,9.303453369E0,9.765106042E0
1.363138950E1,-8.385562134E-1,2.879262543E0,9.315578156E0,9.786384710E0
1.364139450E1,-7.613168335E-1,2.959795074E0,9.325307922E0,9.813325535E0
1.365140050E1,-7.143145752E-1,3.040177917E0,9.344019012E0,9.852087007E0
1.366140550E1,-6.857240295E-1,3.130140839E0,9.339079285E0,9.873520193E0
1.367141050E1,-6.730004883E-1,3.227288818E0,9.318272552E0,9.884256479E0
1.368141650E1,-6.752458191E-1,3.323688354E0,9.190438385E0,9.796275767E0
1.369142150E1,-6.887178040E-1,3.367696838E0,9.070537720E0,9.700019007E0
1.370142650E1,-7.063810730E-1,3.359014893E0,8.943002930E0,9.579105212E0
1.371143250E1,-7.158114624E-1,3.342399445E0,8.806486816E0,9.446598866E0
1.372143750E1,-6.981481934E-1,3.353775787E0,8.775052185E0,9.420019309E0
1.373144250E1,-6.695576477E-1,3.407813416E0,8.835376740E0,9.493438884E0
1.374144850E1,-6.409671021E-1,3.453019409E0,9.020242310E0,9.679821961E0
1.375145350E1,-6.289920044E-1,3.472628632E0,9.281898193E0,9.930176969E0
1.376145850E1,-6.183641052E-1,3.462449799E0,9.569001160E0,1.019493580E1
1.377146450E1,-5.462141418E-1,3.523373108E0,9.822274475E0,1.044938198E1
1.378146950E1,-5.411247253E-1,3.494782562E0,9.766739960E0,1.038727734E1
1.379147450E1,-6.210585022E-1,3.303181000E0,9.434730377E0,1.001553072E1
1.380148050E1,-6.228547668E-1,3.227737885E0,9.227261810E0,9.795335647E0
1.381148550E1,-3.839515686E-1,3.250041504E0,9.398655396E0,9.952131019E0
1.382149050E1,7.364685059E-2,3.387455750E0,9.893376617E0,1.045749402E1
1.383149650E1,3.731739807E-1,3.352428589E0,1.056967026E1,1.109486213E1
1.384150150E1,2.496807861E-1,2.874023438E0,1.131946106E1,1.168129059E1
1.385150650E1,-1.139131165E-1,2.180365906E0,1.219289474E1,1.238683389E1
1.386151250E1,-7.075785828E-1,1.649270325E0,1.286604492E1,1.299060707E1
1.387151750E1,-1.182690582E0,1.389710083E0,1.321392151E1,1.333933180E1
1.388152350E1,-1.438059540E0,1.251397705E0,1.329415466E1,1.343013625E1
1.389152850E1,-1.440753937E0,1.191372528E0,1.294044022E1,1.307478999E1
1.390153350E1,-9.663903809E-1,1.470242615E0,1.207508972E1,1.220259462E1
1.391153950E1,-2.435435486E-1,1.978435822E0,1.100032471E1,1.117947519E1
1.392154450E1,2.378553772E-1,2.232158203E0,9.839788055E0,1.009259800E1
1.393154950E1,5.140310669E-1,2.153721313E0,8.704848175E0,8.982044599E0
1.394155550E1,6.291416931E-1,1.925745392E0,7.723189545E0,7.984483160E0
1.395156050E1,6.557862854E-1,1.624122620E0,6.937922516E0,7.155599120E0
1.396156550E1,6.819818115E-1,1.307381287E0,6.479575653E0,6.645242333E0
1.397157150E1,6.800358582E-1,1.043929138E0,6.323600006E0,6.445165153E0
1.398157650E1,5.769003296E-1,9.035211182E-1,6.396348724E0,6.485556368E0
1.399158150E1,4.001179504E-1,9.801617432E-1,6.732250214E0,6.814983812E0
1.400158750E1,2.868035889E-1,1.230141907E0,7.319029999E0,7.427227311E0
1.401159250E1,1.954934692E-1,1.560504913E0,8.062384186E0,8.214343068E0
1.402159750E1,1.028361511E-1,1.916464691E0,8.802145844E0,9.008950196E0
1.403160350E1,4.326004028E-2,2.133513336E0,9.544901276E0,9.780536332E0
1.404160850E1,-1.287322998E-2,2.232457581E0,1.026176056E1,1.050179805E1
1.405161350E1,-9.026229858E-2,2.235151978E0,1.086605392E1,1.109392534E1
1.406161950E1,-1.981878662E-1,2.162103882E0,1.130583939E1,1.151242702E1
1.407162450E1,-2.974314880E-1,1.963616638E0,1.155417297E1,1.172361586E1
1.408162950E1,-4.200265503E-1,1.685794373E0,1.157722504E1,1.170685545E1
1.409163550E1,-5.221142578E-1,1.435215454E0,1.134236343E1,1.144472171E1
1.410164050E1,-5.415737915E-1,1.263522491E0,1.087847809E1,1.096499324E1
1.411164550E1,-4.390370178E-1,1.239422607E0,1.019604721E1,1.028048154E1
1.412165150E1,-2.820135498E-1,1.414558411E0,9.454489288E0,9.563883879E0
1.413165650E1,-9.939331055E-2,1.692380676E0,8.788374481E0,8.950394260E0
1.414166150E1,3.876937866E-2,1.964664459E0,8.274044037E0,8.504188040E0
1.415166750E1,1.016386414E-1,2.185155945E0,7.931107178E0,8.227253368E0
1.416167250E1,1.278341675E-1,2.374961243E0,7.701035614E0,8.059946154E0
1.417167750E1,1.365161133E-1,2.512674866E0,7.589966583E0,7.996234387E0
1.418168350E1,1.368154907E-1,2.596650238E0,7.579787750E0,8.013394616E0
1.419168850E1,1.056802368E-1,2.691552887E0,7.653733978E0,8.113893582E0
1.420169350E1,8.592132568E-2,2.805316315E0,7.832312622E0,8.319994177E0
1.421169950E1,5.553451538E-2,2.894979858E0,8.093818817E0,8.596155856E0
1.422170450E1,1.062789917E-2,2.963986359E0,8.384813690E0,8.893279975E0
1.423170950E1,-4.670288086E-2,2.983595581E0,8.669671326E0,9.168818062E0
1.424171550E1,-1.031355286E-1,2.957849121E0,8.935518494E0,9.412916610E0
1.425172050E1,-1.122665405E-1,2.941233673E0,9.129515076E0,9.592262758E0
1.426172550E1,-8.128097534E-2,2.925516357E0,9.299860840E0,9.749495587E0
1.427173150E1,-4.475692749E-2,2.929707642E0,9.422156525E0,9.867229785E0
1.428173650E1,-1.152603149E-2,2.943628693E0,9.550140381E0,9.993511096E0
1.429174129E1,2.679428101E-2,2.938838654E0,9.742789764E0,1.017641602E1
1.430174729E1,2.784210205E-2,2.939138031E0,9.937235413E0,1.036281599E1
1.431175229E1,7.634124756E-3,2.922372894E0,1.014260834E1,1.055522740E1
1.432175729E1,-2.769241333E-2,2.882705383E0,1.035067566E1,1.074463791E1
1.433176329E1,-7.738906860E-2,2.818488922E0,1.051473450E1,1.088620735E1
1.434176829E1,-1.552272034E-1,2.757266235E0,1.067864365E1,1.102996114E1
1.435177429E1,-1.936972046E-1,2.682721252E0,1.085512665E1,1.118339333E1
1.436177929E1,-2.231858826E-1,2.662363586E0,1.096529755E1,1.128608622E1
1.437178429E1,-2.552192688E-1,2.673739929E0,1.095631622E1,1.128073079E1
1.438178929E1,-2.679428101E-1,2.666704559E0,1.083312241E1,1.115973331E1
1.439179529E1,-3.176394653E-1,2.633773041E0,1.057520874E1,1.090287555E1
1.440180029E1,-3.474275208E-1,2.608325958E0,1.027223877E1,1.060391246E1
1.441180629E1,-3.604504395E-1,2.629881134E0,9.949958954E0,1.029795526E1
1.442181129E1,-3.183879089E-1,2.692600708E0,9.666149139E0,1.003921853E1
1.443181629E1,-2.378553772E-1,2.785407715E0,9.546098785E0,9.947013287E0
1.444182229E1,-1.410067749E-1,2.907703400E0,9.595945129E0,1.002780060E1
1.445182729E1,-2.619552612E-2,2.993325348E0,9.788145447E0,1.023564723E1
1.446183229E1,-5.014572144E-2,2.931054840E0,9.981842651E0,1.040340232E1
1.447183829E1,-2.880010986E-1,2.790197754E0,9.965676270E0,1.035291513E1
1.448184329E1,-5.890251160E-1,2.680326233E0,9.642348633E0,1.002526740E1
1.449184829E1,-7.532336426E-1,2.633623352E0,9.192983093E0,9.592406947E0
1.450185429E1,-6.677613831E-1,2.541415100E0,8.950786743E0,9.328519673E0
1.451185929E1,-5.349874878E-1,2.382745056E0,9.232800293E0,9.550302972E0
1.452186429E1,-6.448590088E-1,2.056273956E0,9.995164948E0,1.022484367E1
1.453187029E1,-8.837622070E-1,1.733694763E0,1.083342178E1,1.100680520E1
1.454187529E1,-1.147214355E0,1.537452850E0,1.155447235E1,1.171262965E1
1.455188029E1,-1.247356110E0,1.414857788E0,1.198782120E1,1.213530292E1
1.456188629E1,-1.315314789E0,1.278790741E0,1.201506454E1,1.215430519E1
1.457189129E1,-1.261426849E0,1.232536926E0,1.138876694E1,1.152451115E1
1.458189629E1,-8.499325562E-1,1.415905609E0,1.036205200E1,1.049282115E1
1.459190229E1,-5.357359314E-1,1.589095459E0,9.205257568E0,9.356762488E0
1.460190729E1,-4.300556946E-1,1.595232697E0,8.049960022E0,8.217759525E0
1.461191229E1,-3.640429688E-1,1.527274017E0,7.192842407E0,7.362205858E0
1.462191829E1,-3.257226562E-1,1.428928528E0,6.740483093E0,6.897973928E0
1.463192329E1,-3.293151855E-1,1.316212921E0,6.721173248E0,6.856751037E0
1.464192829E1,-4.578977966E-1,1.272354126E0,7.144043884E0,7.270895298E0
1.465193429E1,-7.393125916E-1,1.325792999E0,8.063881073E0,8.205515715E0
1.466193929E1,-1.058448944E0,1.344055023E0,9.202563171E0,9.360233277E0
1.467194429E1,-1.279539185E0,1.353335724E0,1.034858002E1,1.051483935E1
1.468195029E1,-1.385069733E0,1.385369110E0,1.125614273E1,1.142534091E1
1.469195529E1,-1.366059265E0,1.442400513E0,1.182885178E1,1.199451423E1
1.470196029E1,-1.257684631E0,1.543290710E0,1.206401276E1,1.222717959E1
1.471196629E1,-1.110839996E0,1.640887756E0,1.193543015E1,1.209880039E1
1.472197129E1,-9.969268799E-1,1.693877563E0,1.149145340E1,1.165832688E1
1.473197629E1,-9.042695618E-1,1.694476318E0,1.081186661E1,1.098113897E1
1.474198229E1,-7.849676514E-1,1.692230988E0,9.997410278E0,1.016995734E1
1.475198729E1,-6.331832886E-1,1.756597137E0,9.129964142E0,9.318948428E0
1.476199229E1,-5.040019226E-1,1.796863403E0,8.380472717E0,8.585747434E0
1.477199829E1,-3.526666260E-1,1.845512238E0,7.813601532E0,8.036333621E0
1.478200329E1,-2.392025757E-1,1.886227570E0,7.407496033E0,7.647618570E0
1.479200829E1,-2.140548706E-1,1.966161346E0,7.185657349E0,7.452870686E0
1.480201429E1,-2.558180237E-1,2.087409210E0,7.223827972E0,7.523723190E0
1.481201929E1,-3.444337463E-1,2.243085480E0,7.476652222E0,7.813475252E0
1.482202429E1,-4.104464722E-1,2.419119415E0,7.900720367E0,8.272967266E0
1.483203029E1,-4.685256958E-1,2.569855957E0,8.440348206E0,8.835335523E0
1.484203529E1,-5.468128967E-1,2.689606934E0,8.908574524E0,9.321785765E0
1.485204029E1,-6.399192810E-1,2.782114563E0,9.240434418E0,9.671364245E0
1.486204629E1,-7.244934082E-1,2.866688690E0,9.464219055E0,9.915353603E0
1.487205129E1,-7.686515808E-1,2.938389587E0,9.564809875E0,1.003546444E1
1.488205629E1,-7.613168335E-1,3.021017761E0,9.581724701E0,1.007549502E1
1.489206229E1,-7.107220459E-1,3.075354767E0,9.563163300E0,1.007060202E1
1.490206729E1,-6.334826660E-1,3.073408813E0,9.575437775E0,1.007651480E1
1.491207229E1,-5.614823914E-1,2.986439667E0,9.636361084E0,1.010413476E1
1.492207829E1,-5.444178772E-1,2.851121063E0,9.737101593E0,1.016053294E1
1.493208329E1,-5.757028198E-1,2.719993744E0,9.877958679E0,1.026176726E1
1.494208829E1,-6.191125488E-1,2.640808411E0,9.975555725E0,1.033774063E1
1.495209429E1,-6.343807983E-1,2.611020355E0,1.003213806E1,1.038574313E1
1.496209929E1,-5.878276062E-1,2.656226349E0,1.002899460E1,1.039142976E1
1.497210429E1,-5.060975647E-1,2.768941956E0,9.961484985E0,1.035153889E1
1.498211029E1,-4.420307922E-1,2.930156708E0,9.810149689E0,1.024793864E1
1.499211529E1,-4.016148376E-1,3.062331848E0,9.624835052E0,1.010824518E1
1.500212129E1,-3.893403625E-1,3.141816559E0,9.418713684E0,9.936536855E0
1.501212629E1,-3.799099731E-1,3.191662903E0,9.229956207E0,9.773593774E0
1.502213129E1,-3.784130859E-1,3.196902008E0,9.088200989E0,9.641513166E0
1.503213729E1,-3.598516846E-1,3.185974731E0,9.014853516E0,9.568046411E0
1.504214229E1,-3.492237854E-1,3.219954071E0,9.118587799E0,9.676709406E0
1.505214729E1,-3.731739807E-1,3.266507263E0,9.429940338E0,9.986646249E0
1.506215329E1,-4.623884583E-1,3.310665436E0,9.895322571E0,1.044469806E1
1.507215829E1,-5.466632080E-1,3.294049988E0,1.041788589E1,1.093992470E1
1.508216329E1,-6.014492798E-1,3.173101501E0,1.089299789E1,1.136167758E1
1.509216929E1,-6.701564026E-1,3.064277802E0,1.112576385E1,1.155947790E1
1.510217429E1,-7.170089722E-1,2.944975891E0,1.099014587E1,1.140045136E1
1.511217929E1,-7.192543030E-1,2.726430359E0,1.063433578E1,1.100181107E1
1.512218529E1,-5.010081482E-1,2.615061951E0,1.047312103E1,1.080628624E1
1.513219029E1,-1.775308228E-1,2.618504791E0,1.066636917E1,1.098451254E1
1.514219529E1,7.185058594E-3,2.522404633E0,1.106858276E1,1.135236104E1
1.515220129E1,-2.754272461E-2,2.247127075E0,1.163979492E1,1.185475282E1
1.516220629E1,-1.160087585E-1,1.941911774E0,1.219139786E1,1.234563328E1
1.517221129E1,-1.550775146E-1,1.668131104E0,1.255020172E1,1.266152730E1
1.518221729E1,-2.454895020E-1,1.481020203E0,1.263058456E1,1.271948711E1
1.519222229E1,-4.996609497E-1,1.350341949E0,1.235710327E1,1.244070278E1
1.520222729E1,-6.433621216E-1,1.261277161E0,1.170715485E1,1.179246410E1
1.521223329E1,-4.840933228E-1,1.444496155E0,1.066816544E1,1.077639407E1
1.522223829E1,-1.880090332E-1,1.763333130E0,9.429790649E0,9.595084305E0
1.523224329E1,4.775070190E-2,2.026186523E0,8.227041779E0,8.473011766E0
1.524224929E1,3.385958862E-1,2.165846100E0,7.183561707E0,7.510598864E0
1.525225429E1,6.851252747E-1,2.174677734E0,6.462810516E0,6.853213820E0
1.526225929E1,9.735754395E-1,2.090103607E0,6.113586731E0,6.533936405E0
1.527226529E1,1.163081360E0,1.887125702E0,6.119574280E0,6.508701178E0
1.528227029E1,1.213825836E0,1.581311646E0,6.439608765E0,6.741103821E0
1.529227500E1,1.070274353E0,1.254541168E0,7.057224426E0,7.247328979E0
1.530228100E1,8.066725159E-1,9.642947388E-1,7.960296478E0,8.058964258E0
1.531228600E1,5.037025452E-1,7.438032532E-1,8.826994171E0,8.872586186E0
1.532229100E1,2.862048340E-1,6.791377258E-1,9.550140381E0,9.578534468E0
1.533229700E1,1.911524963E-1,7.752378845E-1,1.015772690E1,1.018906025E1
1.534230200E1,1.080752563E-1,9.114546204E-1,1.065888474E1,1.069832948E1
1.535230700E1,2.395019531E-3,1.049766998E0,1.107831253E1,1.112793894E1
1.536231300E1,-1.386117554E-1,1.172212372E0,1.142379410E1,1.148461435E1
1.537231800E1,-3.260220337E-1,1.213825836E0,1.164997375E1,1.171757449E1
1.538232300E1,-5.562432861E-1,1.175655212E0,1.169862259E1,1.177069846E1
1.539232900E1,-7.589218140E-1,1.087189178E0,1.159324173E1,1.166881298E1
1.540233400E1,-9.497749329E-1,9.651928711E-1,1.133622620E1,1.141681628E1
1.541233900E1,-1.012195129E0,9.508227539E-1,1.079435303E1,1.088332027E1
1.542234500E1,-8.053253174E-1,1.163829803E0,1.004740631E1,1.014659658E1
1.543235000E1,-5.432203674E-1,1.465003510E0,9.321416016E0,9.451461273E0
1.544235500E1,-4.218228149E-1,1.690434723E0,8.680598602E0,8.853716515E0
1.545236100E1,-4.132905579E-1,1.841919708E0,8.124055939E0,8.340489326E0
1.546236600E1,-3.965254211E-1,1.950444031E0,7.684270477E0,7.937850912E0
1.547237100E1,-3.769161987E-1,2.015558624E0,7.411986694E0,7.690389401E0
1.548237700E1,-3.050656128E-1,2.049687653E0,7.265890503E0,7.555623687E0
1.549238200E1,-2.430944824E-1,2.096390533E0,7.198680267E0,7.501662868E0
1.550238700E1,-1.505868530E-1,2.129022675E0,7.262148285E0,7.569294000E0
1.551239300E1,-4.011657715E-2,2.156715088E0,7.501799927E0,7.805769113E0
1.552239800E1,-8.981323242E-4,2.190245361E0,7.846682739E0,8.146631547E0
1.553240300E1,-8.502319336E-2,2.160756683E0,8.251890106E0,8.530521011E0
1.554240900E1,-1.836680603E-1,2.090253296E0,8.669222260E0,8.919546366E0
1.555241400E1,-2.121089172E-1,2.070344696E0,9.055568848E0,9.291643800E0
1.556241900E1,-1.890568542E-1,2.096540222E0,9.392667847E0,9.625665311E0
1.557242500E1,-1.411564636E-1,2.150877228E0,9.704020386E0,9.940533670E0
1.558243000E1,-1.272354126E-1,2.204016724E0,1.001477417E1,1.025522210E1
1.559243500E1,-1.803749084E-1,2.250869293E0,1.028990204E1,1.053475352E1
1.560244100E1,-2.456391907E-1,2.295476532E0,1.052865555E1,1.077878188E1
1.561244600E1,-3.011737061E-1,2.293979645E0,1.070738388E1,1.095450217E1
1.562245200E1,-3.534150696E-1,2.241588593E0,1.079135925E1,1.102737757E1
1.563245700E1,-3.909869385E-1,2.226320343E0,1.076082275E1,1.099566639E1
1.564246200E1,-4.192781067E-1,2.291135559E0,1.060514648E1,1.085791086E1
1.565246800E1,-4.020639038E-1,2.361189880E0,1.042342438E1,1.069507591E1
1.566247300E1,-4.076023865E-1,2.372266846E0,1.021415955E1,1.049394325E1
1.567247800E1,-3.998185730E-1,2.362986145E0,1.002345612E1,1.030598035E1
1.568248400E1,-3.848497009E-1,2.392624512E0,9.858499146E0,1.015198339E1
1.569248900E1,-3.923341370E-1,2.402204590E0,9.711953888E0,1.001232047E1
1.570249400E1,-4.700225830E-1,2.408491516E0,9.563312988E0,9.873130604E0
1.571250000E1,-5.466632080E-1,2.495310974E0,9.467512207E0,9.806079997E0
1.572250500E1,-6.119274902E-1,2.686313782E0,9.340725861E0,9.738577750E0
1.573251000E1,-5.825885010E-1,2.919379120E0,9.218729553E0,9.687474304E0
1.574251600E1,-4.926255798E-1,3.154839478E0,9.243428192E0,9.779399615E0
1.575252100E1,-4.049079895E-1,3.327879639E0,9.465416565E0,1.004155586E1
1.576252600E1,-3.799099731E-1,3.346890106E0,9.867181091E0,1.042627775E1
1.577253200E1,-4.195774841E-1,3.052901459E0,1.038405624E1,1.083166084E1
1.578253700E1,-6.491999817E-1,2.371219025E0,1.087114334E1,1.114566722E1
1.579254200E1,-9.276210022E-1,1.531315613E0,1.132874176E1,1.146934166E1
1.580254800E1,-1.221310272E0,8.256829834E-1,1.169323380E1,1.178579941E1
1.581255300E1,-1.525926819E0,4.676275635E-1,1.181537979E1,1.192268123E1
1.582255800E1,-1.667981415E0,5.433700562E-1,1.183708466E1,1.196636896E1
1.583256400E1,-1.747615814E0,8.152047729E-1,1.162273041E1,1.178162052E1
1.584256900E1,-1.513802032E0,1.112336884E0,1.087159241E1,1.103269738E1
1.585257400E1,-9.616003418E-1,1.443148956E0,9.852212219E0,1.000367131E1
1.586258000E1,-6.188131714E-1,1.713786163E0,8.836274872E0,9.022180799E0
1.587258500E1,-4.349954224E-1,1.870959320E0,7.822283478E0,8.054677436E0
1.588259000E1,-2.782713318E-1,1.931732941E0,7.060367889E0,7.325149952E0
1.589259600E1,-2.046244812E-1,1.858684845E0,6.648274841E0,6.906239128E0
1.590260100E1,-1.540296936E-1,1.757794647E0,6.728058929E0,6.955598042E0
1.591260600E1,-3.784130859E-1,1.629212036E0,7.435787201E0,7.621578552E0
1.592261200E1,-8.872050476E-1,1.412163391E0,8.450077972E0,8.613080516E0
1.593261700E1,-1.275048523E0,1.202299805E0,9.477541351E0,9.638208528E0
1.594262200E1,-1.461560669E0,1.148262177E0,1.036729111E1,1.053258708E1
1.595262800E1,-1.539249115E0,1.169667664E0,1.104657852E1,1.121446866E1
1.596263300E1,-1.535506897E0,1.281485138E0,1.145597717E1,1.162924755E1
1.597263800E1,-1.409169617E0,1.461410980E0,1.159473862E1,1.177112759E1
1.598264400E1,-1.188977509E0,1.597777405E0,1.137319931E1,1.154626445E1
1.599264900E1,-9.355545044E-1,1.696422272E0,1.086829926E1,1.103961229E1
1.600265400E1,-7.584727478E-1,1.741628265E0,1.019544846E1,1.037090734E1
1.601266000E1,-6.830296326E-1,1.739233246E0,9.470206604E0,9.652785861E0
1.602266500E1,-6.135740662E-1,1.760039978E0,8.819659424E0,9.014466496E0
1.603267000E1,-5.041516113E-1,1.835183716E0,8.335266724E0,8.549780083E0
1.604267600E1,-4.207749939E-1,1.930834808E0,8.000562744E0,8.241005938E0
1.605268100E1,-3.454815674E-1,2.083068237E0,7.889194336E0,8.166879335E0
1.606268600E1,-3.227288818E-1,2.256108398E0,7.989934845E0,8.308624306E0
1.607269200E1,-3.317102051E-1,2.413431244E0,8.262967072E0,8.614598473E0
1.608269700E1,-3.601510620E-1,2.601889343E0,8.670868835E0,9.059994664E0
1.609270200E1,-4.007167053E-1,2.808160400E0,9.080117798E0,9.512879582E0
1.610270800E1,-4.569996643E-1,2.900817719E0,9.377399597E0,9.826454871E0
1.611271300E1,-4.647834778E-1,2.913092194E0,9.578730927E0,1.002268507E1
1.612271800E1,-4.933740234E-1,2.854563904E0,9.740993500E0,1.016262306E1
1.613272400E1,-5.405259705E-1,2.696342926E0,9.838889923E0,1.021597712E1
1.614272900E1,-5.789959717E-1,2.552342377E0,9.888287201E0,1.022877860E1
1.615273400E1,-5.563929749E-1,2.430645447E0,9.973011017E0,1.028000774E1
1.616274000E1,-5.719606018E-1,2.296674042E0,1.005069946E1,1.032561912E1
1.617274500E1,-5.522016907E-1,2.243983612E0,1.013272888E1,1.039291026E1
1.618275000E1,-4.808001709E-1,2.270029449E0,1.022703278E1,1.048696343E1
1.619275600E1,-3.953279114E-1,2.306553497E0,1.038255936E1,1.064302645E1
1.620276100E1,-4.186793518E-1,2.314337311E0,1.053269714E1,1.079208778E1
1.621276600E1,-5.565426636E-1,2.249222717E0,1.058329193E1,1.083396560E1
1.622277200E1,-7.063810730E-1,2.110760651E0,1.052296738E1,1.075579505E1
1.623277700E1,-7.601193237E-1,2.056423645E0,1.036324951E1,1.059262007E1
1.624278200E1,-7.141648865E-1,2.088307343E0,1.007479935E1,1.031371131E1
1.625278800E1,-6.695576477E-1,2.199675751E0,9.841434631E0,1.010646904E1
1.626279300E1,-6.866221619E-1,2.402204590E0,9.608818359E0,9.928314416E0
1.627279900E1,-6.656657410E-1,2.587219849E0,9.444609833E0,9.815165425E0
1.628280400E1,-6.438111877E-1,2.717898102E0,9.373956757E0,9.781233471E0
1.629280917E1,-6.475534058E-1,2.868335266E0,9.426946564E0,9.874917424E0
1.630281417E1,-6.638694763E-1,3.037184143E0,9.535770264E0,1.002976195E1
1.631282017E1,-6.222560120E-1,3.094365234E0,9.721683655E0,1.022122458E1
1.632282517E1,-4.992118835E-1,3.021616516E0,9.984237671E0,1.044338933E1
1.633283117E1,-3.968247986E-1,2.839145966E0,1.010922775E1,1.050784019E1
1.634283617E1,-4.297563171E-1,2.524799652E0,9.841284943E0,1.016908025E1
1.635284117E1,-4.046086121E-1,2.217638397E0,9.299711151E0,9.569025848E0
1.636284717E1,-3.450325012E-1,2.094145203E0,8.773555298E0,9.026614211E0
1.637285217E1,-2.528242493E-1,2.133213959E0,8.394393768E0,8.664892881E0
1.638285717E1,-1.088237000E-1,2.289788361E0,8.394842834E0,8.702204293E0
1.639286317E1,5.194198608E-2,2.477947083E0,8.911568298E0,9.249809147E0
1.640286817E1,-7.364685059E-2,2.448308716E0,9.671837311E0,9.977177777E0
1.641287317E1,-3.020718384E-1,2.082469482E0,1.043944107E1,1.064940639E1
1.642287917E1,-4.531077576E-1,1.598825226E0,1.102696930E1,1.115148424E1
1.643288417E1,-7.027885437E-1,1.093326416E0,1.121452927E1,1.128959437E1
1.644288917E1,-1.071322174E0,6.280938721E-1,1.118504059E1,1.125377119E1
1.645289517E1,-1.261277161E0,3.905378723E-1,1.099748062E1,1.107645791E1
1.646290017E1,-9.608518982E-1,5.565426636E-1,1.051503387E1,1.057350053E1
1.647290517E1,-2.706372070E-1,1.035845947E0,9.772877197E0,9.831345281E0
1.648291117E1,3.568579102E-1,1.482217712E0,9.025631104E0,9.153487517E0
1.649291617E1,7.668553162E-1,1.724863129E0,8.351133728E0,8.561813735E0
1.650292117E1,9.916877747E-1,1.822460175E0,7.767497406E0,8.039827217E0
1.651292717E1,1.032403107E0,1.802401886E0,7.353608093E0,7.641338935E0
1.652293217E1,9.394464111E-1,1.701212311E0,7.320676575E0,7.574231868E0
1.653293717E1,7.264393616E-1,1.464105377E0,7.576344910E0,7.750633580E0
1.654294317E1,4.245172119E-1,1.170266418E0,7.969726868E0,8.066367503E0
1.655294817E1,1.844165039E-1,9.927355957E-1,8.417146454E0,8.477493016E0
1.656295317E1,1.291813660E-1,9.809101868E-1,8.886570282E0,8.941476612E0
1.657295917E1,1.119671631E-1,1.086590424E0,9.336833954E0,9.400515075E0
1.658296417E1,5.403762817E-2,1.247206421E0,9.822573853E0,9.901585783E0
1.659296917E1,1.062789917E-2,1.371148682E0,1.030966095E1,1.040044569E1
1.660297517E1,1.407073975E-2,1.470092926E0,1.083476898E1,1.093405643E1
1.661298017E1,-2.095642090E-3,1.560953979E0,1.132140701E1,1.142850990E1
1.662298517E1,-1.721420288E-2,1.605710907E0,1.162886765E1,1.173921490E1
1.663299117E1,-7.379653931E-2,1.558708649E0,1.165925446E1,1.176321525E1
1.664299617E1,-1.648072815E-1,1.419797516E0,1.144011017E1,1.152905491E1
